t,ax,ay,az,gx,gy,magnitude
0.0,0.024835707650561634,-0.03375891374871908,0.9568253197517533,-5.570406791165437,-0.1651263185978028,0.9577427468532678
0.010005002501250625,0.0043780449610873,0.006323578487799947,1.0029635677706308,-3.15465416868895,-2.5182513018779815,1.002993057402575
0.02001000500250125,0.05482253000922103,-0.012695272324974385,1.0099338516179397,-4.7103009178712245,-0.8618747872683098,1.0115004025604062
0.030015007503751877,0.10944945225350633,0.024559474837774042,1.0371448845930782,-2.739979093705689,3.573658637588499,1.0431931087006323
0.0400200100050025,0.03202426105402843,-0.04220241759945501,0.9496075643193078,-1.0707515535559438,6.38928327515257,0.9510841832139486
0.05002501250625312,0.04189971425822512,0.0749925598954679,1.0519585180509763,4.185772431656922,2.8524366543178674,1.0554601810559232
0.060030015007503754,0.14175619910389775,0.07541494376234499,0.8914187859663453,-1.6057951935285122,0.5086160423588489,0.905764696651826
0.07003501750875438,0.10955312625536402,0.04456323620385276,0.9993671077233944,-7.928128533847963,7.490058851522138,1.00634108804754
0.080040020010005,0.055183081155005934,0.1273504439637245,1.010571851709579,5.700339232475802,-1.564182365257611,1.0200582216183764
0.09004502251125562,0.11225418082929578,0.14902992126132497,1.0706641364494782,-4.185450668075198,5.154596691834535,1.0867992508388657
0.10005002501250625,0.0673358954195023,0.028230142853701776,1.0440167923183907,-0.2936021355231436,-1.4403139917563932,1.046566828454002
0.11005502751375687,0.07144329829222015,0.07553950423656886,0.9763573145188557,2.2326825347035575,2.1551147900544656,0.9818777760931598
0.12006003001500751,0.10983929707143762,0.07883230270239816,1.0009867903719716,0.998052092013914,-0.5678128239522574,1.0100761147704125
0.13006503251625812,0.0038384441615511716,0.07240779261788605,1.0636106650274155,5.470897737607378,-0.27926091326405433,1.066079391436415
0.14007003501750875,0.013745186100379017,0.16146303536782422,1.052991744744947,2.3950157169637944,-1.8869325873110496,1.0653876554720039
0.15007503751875936,0.07108642148461682,0.10934965059735835,1.0310751236930498,-4.30654789848554,6.724270155903472,1.0392913624695872
0.16008004002001,0.04650016883834767,0.10334432776055208,1.0388837508858038,10.892810869958309,-3.6646301905426752,1.0450462973652563
0.17008504252126064,0.10955256093940582,0.012415114951232875,1.1004265838157576,0.9716673166911661,-3.701161262743542,1.105936058303577
0.18009004502251125,0.04393722961276436,0.1389770215770512,1.0422163142765375,-0.7367011331075312,10.604967829225547,1.052359224987667
0.19009504752376188,0.013078835233566857,0.038469904617724086,1.0659612099740088,4.8196271152778545,4.889237823271657,1.0667353423701758
0.2001000500250125,0.15026158639318365,0.09537160904984354,1.1809022534521274,1.247254729650361,-11.925568493465182,1.1942380082573427
0.21010505252626313,0.05799088554477344,0.09700448758082984,1.0030292396073728,1.9961409646966355,-2.826293696052018,1.0093762771753807
0.22011005502751374,0.06407056550516221,0.14086591611685179,0.9831916921978534,12.460919993003435,-9.059946687810271,0.9952960098857373
0.23011505752876438,-0.019905086826780036,-0.00384223297528425,1.116291253645381,-1.3756071412752333,-4.753453467076276,1.1164753191186065
0.24012006003001501,0.014094805249204,-0.10139887802048551,1.0442607937298034,-1.5888044700869792,-15.692573331170198,1.0492668875553184
0.25012506253126565,0.03631327834968696,0.04611305587471713,1.063112021685983,0.582892560062319,-0.6849478884697119,1.0647310640532026
0.26013006503251623,-0.037722839137446174,0.11381776675594545,1.040544146208997,5.357579677905193,-5.7097090958065575,1.047430005695708
0.27013506753376687,0.027417843220963828,0.07230684841138814,1.0669352910121312,-7.532670150951995,0.29952628398219194,1.0697340480985065
0.2801400700350175,-0.03270330626895429,0.007277324636114439,1.1599197677856417,-9.827779457382526,-8.125606294412623,1.1604035217951887
0.29014507253626814,-0.028526206087593577,-0.04131163159911805,1.1199108642255577,-2.9355763531007377,0.41455926586019964,1.1210355655150146
0.3001500750375187,-0.05511868188840567,0.010316108299542534,1.1224718139516814,-8.169614795296436,-2.0745813906016366,1.1238716404908264
0.31015507753876936,0.056808905644465134,-0.09164331428240154,1.0078515207922274,-2.1241567376281925,7.509764825942979,1.0136027016422118
0.32016008004002,-0.04679356567366694,-0.031524556856313314,1.0201556930564115,2.5124984806464514,7.056784308728124,1.0217147711317724
0.33016508254127064,-0.10872808648756005,-0.04173754008938668,0.9345612627627466,-4.453744317761318,3.926728015051415,0.9417900896169269
0.3401700850425213,-0.023724895446679398,-0.024812073887262635,1.0346031143935759,-7.134132883906712,-1.633068903306063,1.0351725044587639
0.35017508754377186,-0.13407445580259858,0.05034427398069695,1.1212240362060975,0.34668580857673986,9.926901976301467,1.1303335105125825
0.3601800900450225,-0.0698351319089607,-0.07671317563209981,1.0973180724984786,4.312717423075851,-7.7651763891991035,1.1022108732888092
0.37018509254627313,-0.18448108437727717,-0.12924527510532097,1.0582482399778195,-8.474867192583064,-7.017793147818313,1.0819551511251373
0.38019009504752377,-0.15801982995531347,-0.11121134862207002,1.0658402020543625,4.101161991529921,-0.41891549944532325,1.08321446031556
0.39019509754877435,-0.08570870244654925,-0.2031159123324624,1.0299279889575113,4.086531018691631,11.270190544605596,1.0532586187427013
0.400200100050025,-0.06134755035440727,-0.15266071177946625,1.071821262477774,4.77042551078314,-1.0116945343504378,1.0843752272875609
0.4102051025512756,-0.09116468089702803,-0.14014383585348705,1.0968912119351888,6.092401074358432,-0.9162262160464096,1.109559202833014
0.42021010505252626,-0.1057021232062406,-0.14610807080092392,0.9746294210847565,11.01006962329808,-7.209551780559046,0.9911725458503593
0.4302151075537769,-0.11388351970140378,-0.11097625830464111,1.0670552458636666,-1.780460243095276,4.729647926351892,1.0788383028480442
0.4402201100550275,-0.17039903082199576,-0.1568885141834593,1.0951770677643462,0.5478579003892905,4.765881271646769,1.1194028074579232
0.4502251125562781,-0.12887583462258295,-0.05540881567719343,1.0241273907062889,-2.0821921662401275,3.94537600699955,1.033690490427037
0.46023011505752875,-0.1111382599520037,-0.10571723243890732,1.0761008885931433,0.009884223779053878,-3.146103364236812,1.086977906164911
0.4702351175587794,-0.029346014026473348,-0.09910756646183368,1.1778506182640367,7.664366778181559,-3.5335338418650286,1.1823770875715591
0.48024012006003003,-0.05806563709143321,-0.10669059770947342,1.027834013531026,-6.725072419653344,-6.465611252024852,1.0349865995372771
0.4902451225612806,-0.1554805707171582,-0.07303474134587681,1.0485439958838834,-4.3052483608278775,0.4193625088046682,1.0625219021827896
0.5002501250625313,-0.04234523328540222,-0.029004404872788617,0.9877108649082853,6.885904682522806,-5.402036646392508,0.9890435414792884
0.5102551275637819,-0.06827555843390694,-0.10218224408125434,1.0293325866103546,5.100182534510449,-5.887082526246443,1.036642820234099
0.5202601300650325,-0.07271256534721243,-0.0795455828520602,1.0388750530360504,-1.81565823408539,-2.1184535845533796,1.0444500910676886
0.5302651325662832,0.0023694362015630258,-0.04904355532740968,1.0211442738393715,4.272010005603599,-2.4457808759210806,1.0223240741281618
0.5402701350675337,0.03434855116998822,-0.08793525611943194,0.9559215878575013,1.7060792124601663,-2.6898926441097752,0.9605719725081895
0.5502751375687843,0.040595543131310544,-0.048125048375474155,1.012706538415604,7.501373045004939,2.3322229842013065,1.0146617916098857
0.560280140070035,-0.036620039306906535,-0.01740203945216249,1.0709726995174706,0.3725479691338631,0.3952390107513961,1.0717398851249647
0.5702851425712856,0.0011212076237106187,0.063617650735162,1.0157759824612336,5.128160569362912,-1.4407801525555883,1.0177668245412015
0.5802901450725363,0.04417390346351819,0.046260944722104236,1.0369461445752484,13.2100595524631,0.9150646415574103,1.038917087886833
0.5902951475737869,0.0870637482609938,0.05562328585422822,0.9725344688903388,2.9904957752373313,-4.957635205523161,0.9780068196951841
0.6003001500750375,0.024513849962341273,0.10071197233392554,1.0174683309496368,0.2466408289742181,0.5263931195483897,1.0227343910795244
0.6103051525762881,0.04875571152352702,0.06277780300809162,0.9895890498232017,3.6122349261048967,0.7530124642231689,0.9927762383773473
0.6203101550775387,0.011545686854324139,0.09975816516199512,0.923810460650853,-1.8264042910194245,-7.515234296787403,0.9292527974719083
0.6303151575787894,0.01502069881581234,0.08463614837719023,0.9831040502207982,11.93983852762366,4.97846877185181,0.9868548386493218
0.64032016008004,0.12246881533540507,0.11147914652881562,0.9135202032785682,0.9003551884799075,-4.407168526134978,0.928410131697499
0.6503251625812906,0.1556192414922256,0.07623075519584227,0.9275061266835376,-1.3646666011275643,0.4515489960321748,0.9435550282817864
0.6603301650825413,0.0890483818607826,-0.010762192386062325,0.9647923833328067,-4.178445025100181,5.822058702676351,0.9689529307628807
0.6703351675837919,0.1464821873250095,0.10885269280717473,0.9665069704683323,5.486100958032192,4.628383788569347,0.983586124291496
0.6803401700850426,0.11681223562011583,0.18961392804627797,0.8886566639046725,4.335937064138694,0.17166694284417738,0.9161382026757156
0.6903451725862931,0.06763656128437477,0.1661818289296368,0.9974571326541876,-2.486771857070466,-1.8124950144103427,1.0134652614527484
0.7003501750875437,0.11784680302321669,0.16800230152691373,0.9701744952717857,2.8822567256121134,4.737559542877836,0.9916406574848557
0.7103551775887944,0.17528716148907297,0.17986893588924027,0.9033410651966259,-7.542779841064283,3.3734748890430994,0.9376051957787984
0.720360180090045,0.09394397823475227,0.11931521577637168,0.8588981108501824,0.9248528753657813,-3.0918251002206496,0.8722199015066934
0.7303651825912957,0.17009294119303456,0.12009869545308086,0.9259375042003288,2.2637817603834725,-3.974468235008452,0.9490603600287829
0.7403701850925463,-0.04417593167877219,0.07329099345914053,0.9085047517603112,8.536649047796114,-10.361775908479991,0.9125261457256882
0.7503751875937968,0.12174668382016329,0.08097822752033002,0.9342996052023024,-3.854094013643447,0.7701592084179371,0.9456719730618642
0.7603801900950475,0.07781260137270697,0.11894085504151516,0.9085557449339081,-6.391763144011621,-0.4134887250919934,0.9196060404231822
0.7703851925962981,0.05037900203881103,0.1385894653329661,0.824642260745848,-4.477139804625208,5.680956873212711,0.8377230699674727
0.7803901950975487,0.060950957405000845,0.060663188509820894,0.9041412416929377,-6.6828425015746,1.7952754674018334,0.9082215735044018
0.7903951975987994,-0.05270286844736985,0.033501229496639175,0.9070657379045926,6.6832867887949154,6.671145970863453,0.909212944034988
0.80040020010005,0.02540765385395388,0.04369589583782524,0.9530663477553607,7.743196475120183,-3.486821139580854,0.9544057540748455
0.8104052026013007,0.04349709817777597,0.06083010096908212,0.8857614970182364,1.6010828897441445,5.690751654838092,0.888912666314179
0.8204102051025512,0.08845843489467815,-0.054716261617554274,1.004147257703407,6.106474728425741,-2.6445818955232756,1.0095199250845368
0.8304152076038018,-0.022613787559151045,-0.11084937963142431,0.8244288643485084,0.6697919029011766,3.8879803089613607,0.8321549859992508
0.8404202101050525,-0.04843117005739211,-0.03713463036985844,0.9856226076206684,-0.47555823850383006,-7.293791962653468,0.9875102448373891
0.8504252126063031,-0.044298151133995635,-0.0840879800414305,0.9091574273432385,-1.6651880952688083,1.1756764968309426,0.9141117777792354
0.8604302151075538,0.015601700537312593,-0.06160909629971488,0.9639165756796264,-1.5519549568878275,-9.92343970722955,0.966009450614465
0.8704352176088044,-0.024303097759326407,-0.05627779983164634,0.925744370744231,-7.739007781545157,-1.3356874297087735,0.9277717775828398
0.880440220110055,-0.07727983216614578,-0.08361260682450328,0.9797994317583739,1.3212738180366954,2.201769969389568,0.9863925014686846
0.8904452226113057,-0.03452998391983439,0.00039135003293463977,0.9047678934304516,-0.20166955107021878,-2.6048427561554788,0.9054266474579425
0.9004502251125562,-0.06397112952163461,-0.06625277015672794,0.8707620793788314,3.726803620389379,-5.252188143779836,0.8756188290859559
0.9104552276138069,-0.0281441265557289,-0.0768679333183066,0.9985132133578571,0.4676174821930485,4.230592346479669,1.0018629688148204
0.9204602301150575,-0.11845097635828228,-0.06890762879512746,0.9238409105826816,-0.8135185078454589,-0.5173139492346173,0.9339491009539201
0.9304652326163081,-0.10543733684980931,-0.16380673131294354,0.94284536954686,-4.355965150038154,-2.447853235153358,0.9627601300954283
0.9404702351175588,-0.11322652787512127,-0.060389754891202616,0.9959758954323045,0.3607661841088066,0.20947960577138242,1.004208720034165
0.9504752376188094,-0.1701663299393078,-0.12017691336601523,0.8853218353902398,3.69118615408081,13.183345709727943,0.9095019640275325
0.9604802401200601,-0.0843135066731508,-0.08541939376959487,0.9695773036260779,-5.716694955419303,5.76751424890772,0.9769776803726399
0.9704852426213106,-0.08692794114941399,-0.17356970736209792,0.9133838192551769,0.4373687684036962,5.812868340939201,0.9337841889555711
0.9804902451225612,-0.099307447719195,-0.19716368296238487,0.9395286818585642,1.1652147576474197,2.17773159496182,0.9651163821460517
0.9904952476238119,-0.10960146553946488,-0.07655204774359758,0.95318205688443,-3.590323918091322,0.8324263628857353,0.9625116782816556
1.0005002501250626,-0.16569783511600328,-0.0950946813113032,0.8781493615235396,-2.939281524540001,-11.98041144165208,0.8986907544422769
1.0105052526263132,-0.11180459311691196,-0.15402937009224832,0.9179608395817677,1.1530542438310722,-3.3949017323156605,0.9374846222198617
1.0205102551275638,-0.10259008988509787,-0.146028390934246,1.028336489090184,-5.667105091463115,-2.402872066012373,1.043707311604074
1.0305152576288144,-0.11915729027048481,-0.03858037295054616,1.0090980553954116,1.7496185762469627,-9.374460320237665,1.0168410841446214
1.040520260130065,-0.07968579767756731,-0.1454164091564866,0.9657748488681067,-4.476771868296,-5.787078951077168,0.9799065348846753
1.0505252626313157,-0.043081004492051614,0.006193390863463946,0.9852808336338691,5.314268465166082,-9.90418235461317,0.9862416804032792
1.0605302651325663,0.040173118696565896,-0.10999444836914618,0.9627163721257929,11.689138726941499,-0.19161917848686247,0.9698120804036673
1.070535267633817,-0.035567504813891655,-0.021236078266161168,1.0496337344238478,-4.303784008509099,4.09382985424408,1.0504508531384822
1.0805402701350675,-0.021012537367450256,-0.057098992071755394,0.9762212311464444,2.6710393118733733,5.533872593121644,0.9781153887774737
1.090545272636318,-0.026772555151359997,0.0024990603184551936,1.0023092965462077,-3.6337095244100963,2.0739223103962057,1.0026699062776152
1.1005502751375686,-0.10785420626007441,-0.04150447469985643,1.0525267369475038,5.204770868988947,-4.816981705992845,1.0588520591742083
1.1105552776388194,-0.001954322479232863,-0.008893999751741134,0.9608799730328856,-6.326292045426075,-9.660325792599798,0.9609231213700792
1.12056028014007,0.013677938835517699,0.014845672775945708,1.0822121287082251,2.402933792138563,-8.784343497007509,1.0824003748771278
1.1305652826413206,0.1449871657652153,-0.023919300619932433,0.9322600482423697,-4.364944834446764,-6.344912886272493,0.9437702097055418
1.1405702851425712,0.02308649786161364,0.07628667259181002,1.094747567688657,-1.0349229454918438,-4.444298490178373,1.0976451520226722
1.1505752876438218,0.058243103052128514,0.0261382047989582,0.9990715735602361,-5.155126375736535,-0.7987424899579332,1.001109121874024
1.1605802901450726,0.05133924094898622,0.052259799554097125,1.009953648123408,4.111752354478768,-5.070821090634841,1.0126071181205636
1.1705852926463232,0.0038711859012680316,0.025048636608267942,0.931900624069005,-4.184901772197935,1.6948794683413073,0.9322452431717826
1.1805902951475737,0.12787959529531517,-0.04323053745628856,1.0078894576550161,2.759821296659138,-1.161367513997364,1.0168889954728468
1.1905952976488243,0.115863717385086,0.08436909077088828,0.9827689114403946,-1.7204901413116647,0.052728558705128,0.9931652822050998
1.200600300150075,0.12434622659446742,0.22238432617142387,1.008395732215011,-0.5723618589943147,5.701252763356024,1.0400859220970395
1.2106053026513257,0.044768283773442996,0.14751540221071713,1.0358072191187617,0.7387795370006427,-5.90115867100185,1.0472161134646238
1.2206103051525763,0.1646662459624776,0.11246881751208739,1.0943205090090196,-3.8091233582942436,2.093522891461842,1.1123405880887842
1.2306153076538269,0.02751384245984788,0.10398313325894092,1.0604206732012595,1.0518355677044346,-0.06986614238036654,1.0658618614444673
1.2406203101550775,0.1287807148098529,0.12044872678440956,1.068873781113756,7.651672821772055,-1.6674314048484762,1.0833206027041764
1.250625312656328,0.20952028055718921,0.14735295487878883,1.0019922487246822,-3.8904739291635715,4.426281604329802,1.0342147300152995
1.2606303151575788,0.04975133891356902,0.06009314543868187,1.0158271195357402,5.859050716369224,4.395070772785036,1.0188184915070428
1.2706353176588294,0.06897414187047878,0.17246291875418443,1.1527061074651261,7.490488167438921,-4.73245397994214,1.1675753769155053
1.28064032016008,0.0990381282975435,0.14863573782385592,1.0287139676343937,-4.08077494514022,-0.9108029192896205,1.0441041905007464
1.2906453226613306,0.06444532409397695,0.143452214445141,1.1507790715070645,-7.27527302545276,1.4060584129203268,1.161475014387074
1.3006503251625812,0.006503239979761877,0.12276748078016858,1.0580927321069042,1.5098045008588235,-1.3650337401129224,1.0652109538513
1.310655327663832,0.08080702650591255,0.0938354862034329,1.072412528570228,-2.737037613834365,2.9251066614389916,1.07953856134839
1.3206603301650826,0.01661647068181825,0.11732104944008917,1.127637368363336,9.343016095815011,1.405960089551377,1.133845831790651
1.3306653326663331,0.08487217799857218,0.10302177444724461,1.1392975216038865,0.174037702499161,9.162806201780063,1.147090064180332
1.3406703351675837,0.005899582738078626,0.04454291779267135,1.0715038059303723,-4.010997040175896,-7.651395679648938,1.07244546841564
1.3506753376688343,0.11938231732360169,0.0215826278424246,1.0587272649491064,-5.735797555058557,-0.6121799487369873,1.0656553706807623
1.360680340170085,-0.0077979880861128725,0.042730426599938115,1.0761883250680766,5.449524795454152,-4.542512557560955,1.0770645333444213
1.3706853426713357,0.004339521189286932,0.10198212397424422,1.0964743961043681,-2.8559198704209328,3.0205372771952206,1.1012153678399559
1.3806903451725863,0.04993491440826252,-0.05084448953496021,1.1244792235551926,0.2191439973021413,-8.085859450227723,1.126735187167029
1.3906953476738368,-0.06358613044647116,-0.07582776083735007,1.0802073189051085,4.779013725562404,1.731563551124433,1.0847307947665747
1.4007003501750874,-0.0019457568699694054,-0.007744462258385213,1.1107659330993944,-2.421291759654151,-3.1502421567417054,1.11079463484464
1.4107053526763382,0.040932894025295055,-0.026764707333790716,1.1613099600356946,-0.2296441437008032,-3.6708093306050706,1.1623393113243894
1.4207103551775888,-0.11559150570938587,-0.03359372955906895,1.0977737471458588,-0.08284204911260037,-7.2324910177034365,1.1043537181449208
1.4307153576788394,-0.03632831615471918,-0.04247435100217625,1.0933553282590975,3.4166225575804594,-2.32537973100503,1.0947829423590103
1.44072036018009,-0.04232581501480499,-0.07754405840441166,1.0006426828976964,2.953721677551629,5.422502651454629,1.0045348846342739
1.4507253626813406,-0.025281206139058918,-0.0027536477434052103,0.9436221661637192,-1.1005686562741426,-0.12594341764739736,0.943964784531314
1.4607303651825914,-0.13444894811675856,-0.16716689401125115,1.092907393183376,0.31824530748258856,3.1384020893723723,1.1137629281754506
1.470735367683842,-0.14592472294930448,-0.13730712199312106,1.0668421581143952,-1.8588950576174421,8.323209109831375,1.0854950303193678
1.4807403701850925,-0.06008333636640992,-0.10857923558415812,1.043709925074835,-7.388062034597223,1.318777924112879,1.0510613043056418
1.490745372686343,-0.07650744271069743,-0.19178745220453644,1.079269014361978,1.288004286990647,-2.7939978603117033,1.0988436744938352
1.5007503751875937,-0.08283982977738708,-0.12323008697522064,1.0615010604212762,9.460958804165339,2.3362610759139493,1.07183608495374
1.5107553776888443,-0.08083013161921719,-0.034709542226478235,1.1181325278134864,-4.418595703455314,-2.7214807315714595,1.1215875410567506
1.520760380190095,-0.13368646201212941,-0.11857794670504776,1.0630737417815876,-3.865148548013515,-2.522113416485847,1.0779882095995352
1.5307653826913457,-0.08833023569434473,-0.10839645937693969,1.018258653194535,-4.353638858218707,-7.599463998094924,1.0278145298393204
1.5407703851925962,-0.08426870633328029,-0.18171503425648622,1.101771807597648,3.6229588936156127,4.631287455421961,1.1198315429380032
1.5507753876938468,-0.13235407868058724,-0.14678187973709647,1.0378983717842134,2.2424272709822004,-1.9300128782471964,1.056548887896279
1.5607803901950974,0.00017403564740975375,-0.13049744690799053,1.071417169046196,-0.7926884620822836,0.9104912290793101,1.079335149091734
1.5707853926963482,-0.06471027493116226,-0.12196806000991364,1.017410915383319,-4.590095308194825,-5.179809643033197,1.026736868961747
1.5807903951975988,-0.14212365287249576,-0.034987983864647534,1.0048491175512682,0.46188395819962147,2.179738148577362,1.0154531209092308
1.5907953976988494,-0.04283141911033746,-0.0629063664141785,1.0374883913228956,-7.823110636679021,-3.809706190675419,1.0402758785669357
1.6008004002001,-0.1165261131784007,-0.13692333344729313,1.0297544307738478,0.7171328342874661,-0.7085436085091212,1.0453327326708732
1.6108054027013505,-0.019703659221972106,-0.0585442283693134,1.048844204692847,4.357621930439671,4.3891301561956295,1.0506616137367277
1.6208104052026013,0.008361389198209841,-0.034570980277753176,1.0070808880162638,-6.25599568316839,3.953796561162646,1.0077087776308766
1.630815407703852,-0.08047901875950908,0.009673568515755064,0.9242898650733339,-7.662591384148318,-0.11015036258470232,0.9278373807222924
1.6408204102051025,0.019351896844624968,0.044446742787309326,0.9900122919466624,7.897189458474298,-8.840655163533592,0.9911984397997051
1.650825412706353,0.002818702615871478,-0.07213912206853756,1.0468477570474481,-3.0587981975229246,14.964052850303206,1.049334181494403
1.6608304152076037,0.034507155065444446,-0.04845789908165299,0.9877709747214697,5.679739229719109,8.72929485136568,0.9895607157907597
1.6708354177088545,0.09955264895855037,-0.057223293154707235,0.9857951060001783,-0.7699883259891585,3.6133741244414925,0.9924601887270021
1.680840420210105,0.0036921668003642195,0.0074528941652602255,1.0429136333651106,-0.8097740847066373,-3.766018907954854,1.0429467984446457
1.6908454227113556,-0.01068081378693194,0.05572511203944778,0.9534971758941194,2.1920634974832263,-0.5679608085098233,0.9551838735725292
1.7008504252126062,-0.006770716001196775,0.09461273240555036,0.90749159992404,-4.419994283732203,-2.7171021488825846,0.9124354309544906
1.7108554277138568,0.007131249519061057,0.05370856533867342,0.9721853083139402,0.6624857174782277,6.319279695481942,0.97369386277819
1.7208604302151076,0.05367050992767688,0.053038338315316305,0.9516565781593302,-1.9074470741204639,1.3125144542591691,0.9546433007783967
1.7308654327163582,0.08345126464500618,0.0872602986974458,0.9232786046540447,-6.602467217025158,-3.920819291799164,0.9311400835059879
1.7408704352176088,0.08824709127899412,0.04753791649349063,0.9586385546112169,1.6874103736319954,-2.3537754956239096,0.9638647628224762
1.7508754377188593,0.12283885130963618,0.20225256271414066,0.9879036158067225,-1.3165390343895809,5.605940712849523,1.0158489241218422
1.76088044022011,0.08815478336869266,0.024622575173853814,0.9589021143393742,-0.785124142223539,8.00048923410239,0.9632605057426031
1.7708854427213607,0.1650871942548089,0.12012961742111786,0.9708838360810511,-6.050804717070789,7.641657817431228,0.9921191107181268
1.7808904452226113,0.08290150611256199,0.21654152829083373,1.0425157004653693,7.957001838814021,3.7851603252698873,1.0679896436328682
1.7908954477238619,0.2346370905338937,0.1186943508732952,0.9311660052749743,4.3835709319305804,-1.263124344013184,0.9675810263555177
1.8009004502251125,0.13114480879735857,0.11033177794085519,0.9588574261410042,4.820779420859893,-16.207569126645602,0.974053194524733
1.810905452726363,0.05695912975026958,0.10190813794477907,0.9162855697610395,-1.52722351220841,1.4858001190411079,0.9236930531261957
1.8209104552276139,0.04495127410283822,0.10917549471895219,0.8964209131397527,-8.645914447517102,-0.009143794220501968,0.9041627946365104
1.8309154577288644,0.12003863365542769,0.18374043920574862,0.9066822192466234,9.764586912447554,0.6999104816067686,0.9328678734244017
1.840920460230115,0.0809342198933179,-6.42645749428239e-05,0.9093834140923839,-0.30548754002934064,0.2694867351660319,0.912977845243791
1.8509254627313656,0.12282166298061514,0.18121765099602893,0.9489022515499305,-3.743998980100269,-6.631310809745785,0.973827747050971
1.8609304652326162,0.10468349960048234,0.02602808442365885,1.046210405719101,2.0840078724155693,2.787042784255928,1.0517567728815895
1.870935467733867,0.07024387399764848,0.0753297670948698,0.8910105851074024,5.835603940016487,3.1610815701592516,0.8969440553447023
1.8809404702351176,0.023464330496282416,0.0575025986647101,0.9042718385444162,-0.11525278042733096,3.411693910298296,0.9064020529783304
1.8909454727363681,-0.01886129145589755,0.09768494722261079,0.9204769774983281,6.392875839696872,4.732885017866933,0.9258379789864565
1.9009504752376187,0.024904858009309964,-0.02322949085899416,0.9421974764093258,5.414999692584343,3.020258224608116,0.9428127840404659
1.9109554777388693,0.0797959945249441,0.06747989907462171,0.9346077839045358,-5.381905937010291,-2.050147057694554,0.9404321598373236
1.9209604802401201,0.036953261839599266,0.1327137707240495,0.9849091732763021,-3.3689505282973817,-0.35418423958045114,0.994497143336365
1.9309654827413707,-0.047101567744933764,-0.04993625480084177,0.7989126740858061,4.787685816398837,0.45562433626688437,0.8018563761937039
1.9409704852426213,0.012586990830814717,0.014198841826426523,0.8006689426834895,-13.56306281905219,0.5384972455330924,0.800893747775124
1.9509754877438719,0.011886147863487639,-0.041954774237375494,0.8952606446343506,-0.7472784658249438,4.991088279858649,0.8963219875822833
1.9609804902451224,-0.06278587083725923,-0.0010172385229912928,0.9752145129361309,-7.154156008123359,3.2183437651124542,0.9772340797333363
1.970985492746373,-0.021882214345238342,-0.034524774700230076,0.8426169417152465,-2.3827690071676235,10.386717197849766,0.8436077891048113
1.9809904952476238,-0.03725531910605417,-0.08027325148624048,0.7713206959187461,-1.4941004451460207,11.03234489942336,0.7763809436471543
1.9909954977488744,-0.10739782918239155,-0.03590556290547877,0.9513148131120096,-1.7912218895375398,0.3982479130696249,0.9580309894815444
2.001000500250125,-0.04180080915410747,0.0185891928835112,0.9362394227743497,-2.761306260563043,-19.18327774229685,0.9373564543410612
2.0110055027513756,-0.040328367278009015,-0.0915863019020698,0.871089886500068,-5.48571824814407,6.184162330636332,0.8768192620295864
2.0210105052526264,-0.022018015929306023,-0.055416796598274747,0.8781051583810383,11.459556334093431,-2.701881694935272,0.8801275382273106
2.0310155077538767,-0.030309226684820854,-0.16426284303743738,0.8809091683025443,9.337310020806754,-4.0074196091550345,0.8966057626540519
2.0410205102551275,-0.15764997482203985,-0.15434162654992278,0.9371632746266896,-5.810329101281415,-1.992226374946834,0.9627823510827801
2.0510255127563783,-0.1402895984228564,-0.08845770181850143,0.9027796692997329,7.910583756517836,-2.233215234073032,0.9178872848763034
2.0610305152576287,-0.07108384399589478,-0.04199692740079505,0.961468454501253,-1.9973274523642646,3.061349050526963,0.9650068620426324
2.0710355177588795,-0.07334502857553987,-0.10106052390609738,0.796906108234884,0.6459373666585523,-7.797178895631127,0.8066300688983706
2.08104052026013,-0.07421399645843808,-0.1356125584546463,0.8998601970681965,-0.31636979948457933,-5.388603728958008,0.9130426373114026
2.0910455227613807,0.09301672433957955,-0.11957924996062011,0.8896487979226494,-3.298743206269829,1.715792770987083,0.9024557006708002
2.1010505252626315,-0.06945464102363609,-0.18011938656843918,0.9365561282151526,4.919261718030733,3.114720152066541,0.9562449068491138
2.111055527763882,-0.03834677665061521,-0.08392430407380583,0.9260544512289731,0.629432652883289,3.2077082246800597,0.9306398931567244
2.1210605302651326,-0.0433341986002469,-0.06512449101371795,0.9965832479036199,-2.382757116096207,-3.935181394666495,0.9996485492913243
2.131065532766383,-0.053209609934147035,-0.12553952364097834,0.8675970329468077,-6.522947219002363,-4.8913282463312004,0.8782460054924542
2.141070535267634,-0.09519039177709408,-0.11881442284206721,0.9668374574521508,-4.467975068595602,-2.5331741689395963,0.9787506050544795
2.151075537768884,-0.03411034304188264,-0.0731766533972528,0.9965921191552716,-8.206900578010485,1.1993637614236254,0.9998570848212517
2.161080540270135,-0.10241029623762492,-0.09835882941492535,1.0657203263052268,0.06111774207584733,7.427386846362748,1.0751381966982065
2.1710855427713858,-0.06650458161689014,-0.06890301226715875,0.9530990736137241,-5.983327961421979,-10.237185928853751,0.957897869607645
2.181090545272636,-0.06912728801632995,0.05115515670847604,0.9977827227271846,-1.3278025625927061,-1.1036437847918328,1.0014817990254417
2.191095547773887,-0.030387108144417266,-0.053728263173779905,0.8957980836979091,6.850509268051854,-6.663392205126018,0.8979222178796433
2.2011005502751373,0.09207142360719439,-0.04631081327283837,0.8708696733882509,5.996497864607928,-8.261213386767448,0.876946877808688
2.211105552776388,-0.10590281972014304,-0.04742456239042471,1.0372129676596864,-0.16138447051308905,4.834783226724083,1.0436834944675584
2.221110555277639,0.03305577694720232,0.035700919489168814,0.9992190823521788,-0.43542363071574963,2.723122872496693,1.000402926114616
2.2311155577788893,-0.07059461841593037,0.002988201511357506,1.0629471890273727,9.39937274710504,2.247167579736311,1.0652930376937402
2.24112056028014,-0.002385438590019568,-0.007015266276728778,0.9398629982222857,2.603780601793556,4.605129198654967,0.9398922064287928
2.2511255627813904,0.08655737020503743,0.10459701004165355,1.0390125308857951,-1.6390322993826145,-2.39859448383068,1.047845290195156
2.2611305652826412,0.04581183722074788,0.12209755374485157,1.1109009401399534,-7.13009058560226,-2.1631875816676414,1.1185291394790973
2.271135567783892,-0.0013462395339091451,0.033028020948132134,1.0428320788650072,1.9693660908237163,10.928653083612872,1.0433558392219529
2.2811405702851424,0.026046969613244278,-0.01915241147653958,1.0399927121600883,4.146618862914312,-1.2328552712978718,1.0404951229282606
2.291145572786393,0.10427261136036106,0.13472695318819883,1.030824553147135,-3.1582576225682195,3.675660565270456,1.0448078238443061
2.3011505752876436,0.04135590652198458,0.059217594441409484,0.9559885158920627,1.4560137756901625,0.031907704816574886,0.9587132402408923
2.3111555777888944,0.0952826584169124,0.1408829546835148,1.1063365675002668,-1.8178664745751454,-9.241292650392076,1.119333459029803
2.321160580290145,0.0922435589681677,0.009452769481980608,1.0119169815571454,-0.9201619959950136,-10.223145019006342,1.0161565856627202
2.3311655827913955,0.06173952200022187,0.15781331417158073,1.0714500934651139,-12.439110287811657,-2.894921099699524,1.08476823031145
2.3411705852926463,0.20466495498247228,0.05640270415540813,0.9716923548972329,-1.1089070185806775,5.280506258349945,0.9946130108739529
2.3511755877938967,0.1310652853961159,0.1557814070895846,0.9943297206594502,4.846846512040272,3.941458283180018,1.0149569198825517
2.3611805902951475,-0.0012571602062581844,0.12071361634376832,1.1283451336167631,-3.157012777832791,4.570385821120168,1.134784604310089
2.3711855927963983,0.10867430487817802,0.0715249359978157,1.042332612976095,0.26263184107658133,-4.935230894681577,1.050420485845464
2.3811905952976486,0.06434316395981861,0.09656716899154658,1.135277426402725,-3.779753533459602,8.079362450611567,1.1411924008575403
2.3911955977988995,0.13688887564810326,0.14743657353778553,1.0614176749855684,1.8022083814638645,-4.824466500931922,1.0803164296929555
2.40120060030015,0.05027020173957744,0.11317020904921667,0.9757408147459593,-1.082615987680868,1.0641219933498436,0.9835673474451506
2.4112056028014006,0.07863865975873405,0.13047122722211899,1.1147284979215932,-4.6962077034100345,-0.051761449538683446,1.125089509336936
2.4212106053026514,0.10302491369047095,0.192152688915512,1.0426955093227634,6.662757338325639,-0.8693691015729317,1.065246785425916
2.431215607803902,0.11346861623431603,0.006004947245419362,1.1089585576701921,4.644660067661076,6.692960691478033,1.1147646697359508
2.4412206103051526,0.0016737191151378478,0.15488687610994317,1.0768817677095421,-3.0245338196408738,-3.5255526008298026,1.0879646535398113
2.451225612806403,0.03568215480414935,0.06810645679159677,0.9998204249276327,2.488941547088887,-6.7480262785596405,1.002772450624091
2.4612306153076537,0.018708331885478335,0.006007514516074952,1.086299854748098,2.6870600141019034,0.09997743103209636,1.0864775498547297
2.4712356178089045,-0.0007054968943547568,-0.02816252360575249,1.18875517369915,3.21150617505588,-1.9991336714326324,1.1890889321065135
2.481240620310155,0.10933025843315977,0.015813036164074236,1.1041996110215944,-8.471279479975388,16.88691459541323,1.1097116465559997
2.4912456228114057,0.030133884426541323,0.057944264250415226,1.0770261032140143,5.03303270516314,3.382537382199875,1.079004548532822
2.501250625312656,-0.06445857446180238,-0.008074708112936852,1.133765169511197,-2.848494814628657,-2.0467028760931214,1.1356247480261736
2.511255627813907,0.033197635078097594,0.06032319178279793,1.0903714297664333,-1.7891396672063344,-5.280557845935433,1.0925432830293447
2.5212606303151577,0.08229363894218247,-0.10113578959271699,1.0898992356492223,13.189408761301,-9.401442052843924,1.097670731510888
2.531265632816408,0.01699497035768855,-0.04215839859614528,1.0241716232792084,1.5093669036050588,-5.126095428687165,1.0251798249673172
2.541270635317659,-0.12096801159247696,-0.11661908817438749,1.0895236239699737,-1.9316123772358775,0.5747088587956587,1.1024041902786508
2.551275637818909,-0.07900688693534103,-0.047572625819185754,1.128432666736915,-11.02647186377953,7.136643257973847,1.1321950036409503
2.56128064032016,-0.0005444570913260005,-0.032323647955923546,1.033441340429528,6.948820669731778,5.608445711939595,1.0339468645725864
2.571285642821411,-0.10755115607482452,-0.10763930903671523,1.1448124015905412,-6.726048354043012,1.145474158231897,1.154880472974773
2.581290645322661,-0.05733134397703078,-0.22563747129256737,1.0671099842325733,-5.017194517497518,-1.6158383285124234,1.09221008505798
2.591295647823912,-0.04712814277975127,-0.09308440720163699,1.0251850528186706,-1.656761495439246,1.3440617820607712,1.030480548690158
2.6013006503251623,-0.13744573859877002,-0.08748213043716356,1.117110733072467,7.082058958501463,-2.5931899874228796,1.128929069583422
2.611305652826413,-0.09814967955873123,-0.09399335635868458,1.0503298784531137,3.866199933328796,8.591819978819379,1.0590849655284438
2.621310655327664,-0.26009369306532043,-0.055847281683132445,1.0998788465867944,-0.7891875492012999,-0.9459509063753999,1.131592296373941
2.6313156578289143,-0.1508527996362237,-0.17311278506586347,1.044350586564347,1.5414603181941051,-0.4316892912336344,1.0692954461553843
2.641320660330165,-0.11259059006372196,-0.08594381372035423,1.0527940179180038,-3.0019284643555286,-11.079112125103341,1.0622797297565412
2.6513256628314155,-0.16140157498032345,-0.05918952343459841,1.077131623708474,0.6982684478267541,-0.9771742326138193,1.090764137145789
2.6613306653326663,-0.01517570019657806,-0.20508489767211763,1.0634988980529507,0.3666837238906834,4.182420689824705,1.0831989767764185
2.671335667833917,-0.16484914482756524,-0.09602789981949145,0.9455212300793584,4.843849478406766,-5.338612885192726,0.9645760699006092
2.6813406703351674,-0.11069625143530223,-0.13164182407092723,0.9854344485550954,4.835890612194747,-3.753601672464064,1.0003320860222538
2.6913456728364182,-0.07637453929395108,-0.10357001544498906,1.0840331579473166,2.469886911028224,3.9635550886683237,1.0916444961070753
2.7013506753376686,-0.004004993180071331,-0.07389856498313571,1.0269016482131024,-1.8117377877305114,-7.383286117590266,1.0295649726849323
2.7113556778389194,-0.140045924952454,-0.10626480907785602,1.003160501050047,3.709111471950633,5.289005037709592,1.0184478688725913
2.72136068034017,-0.001405825617702361,-0.105262219828621,0.9571630404616855,-0.45984233101523303,-2.66071945086551,0.9629346796614892
2.7313656828414206,-0.0496017232067605,-0.058428430634886584,0.9667693041600864,-5.409571843565665,-1.9428411024560146,0.9698026087393834
2.7413706853426714,-0.08909721412872584,-0.10238843483473407,0.9152641456015591,-2.0164389595546934,-5.61939202562797,0.9252730199120466
2.7513756878439217,-0.006313128500796954,-0.08959321910101187,1.0068356643856164,0.4226349189216227,1.890231302139416,1.01083374279808
2.7613806903451725,-0.008485573507724446,0.011842394204147635,0.977485363802771,4.551078918323727,12.2993599251469,0.9775939257722897
2.7713856928464233,-0.037233826248432356,-0.06610728062652396,0.9545616868890299,-0.9176408607857653,3.90748619730316,0.9575722136974124
2.7813906953476737,0.007575080799617727,0.03821759690560073,0.9949594970417835,-6.045993556198031,-4.321426309702679,0.995722033157848
2.7913956978489245,-0.003924991824505765,0.041538390264996256,1.0120440167266798,0.28370841648409706,5.67810292745738,1.012903714683139
2.801400700350175,0.03207605701374181,-0.054610108738114546,1.0940048937303566,0.5672802002827619,-1.5833977296712474,1.0958365959010066
2.8114057028514257,0.07022856276263895,0.010668202227121178,0.9092844351333472,0.9291881445137652,6.8724249071377965,0.9120548478804523
2.8214107053526765,0.12666991272486722,0.11654835645348813,1.038429657213965,4.599357579772151,4.033382010821814,1.0525991350762396
2.831415707853927,-0.004880517786012152,0.01935403202941227,1.0247602100202762,5.094616200449492,-14.715707827358667,1.0249545775547595
2.8414207103551776,0.17257394125522366,0.05588651391142298,0.9328714878461054,-2.971054361908333,-5.020398164775138,0.9503442957548277
2.851425712856428,-0.023613257990970873,0.11189240304477989,0.9777990745577062,-3.080717290244717,4.721926114176949,0.9844635727227241
2.861430715357679,0.07352437885051312,0.1365058857868805,0.9406703302680518,-5.200993554777366,0.7582863607250878,0.9533626599497278
2.8714357178589296,0.11661453981774188,0.09206147108999085,0.9688677748658477,3.4940783514023814,-5.118779738539253,0.9801933638469789
2.88144072036018,0.10621803438197583,0.08072661945968695,1.0312005868884466,7.244100541688577,-3.1679475774690635,1.039795031877166
2.8914457228614308,0.0648243781099847,0.18626971800614264,0.9823266616543542,-1.575409639544617,-9.531183100446903,1.001930276037421
2.901450725362681,0.08811681993710846,0.2051725021358456,0.9739325388793325,-1.2071528236249656,-0.4418664376319801,0.9992021416492536
2.911455727863932,0.07517634076662279,0.16873456753856708,0.9236072226886195,7.33391278449488,11.053448630078822,0.9418986879150388
2.9214607303651827,0.07038480999906702,0.1240895645437843,0.8677160366954997,2.5277892660750383,4.024666953661628,0.8793653176273308
2.931465732866433,0.14108267735626867,0.07790980092421461,0.928477505991421,2.1811785240052752,10.952085005942116,0.9423612566644031
2.941470735367684,0.11394172954467345,0.07378692596787702,0.9964088939071233,-5.954582529868634,4.411985448949901,1.0056132019979835
2.9514757378689342,0.0577048402740698,0.13694608930781088,0.8571022181030673,3.393640346397095,5.137396716763458,0.869889816151998
2.961480740370185,0.13240850394288245,0.12583412324989807,0.8783011998733614,-4.645681702548791,9.870393438725118,0.8970948869486712
2.971485742871436,0.09675345239029152,0.1677461012630747,0.9351847410772834,-5.67010092967479,1.886316296711132,0.9550238138298897
2.981490745372686,0.11495057745718136,0.12169147044508698,0.8776819196597515,-1.7338578838335608,-0.9361366075344012,0.8935032184242279
2.991495747873937,0.09775750490381788,0.004377260281173814,0.8855656714534039,-2.9289636172434506,5.163287583110061,0.8909558062156098
3.0015007503751874,0.015947222617978152,0.12147374868304404,0.9025284930778464,-1.1079984719251965,7.269201185609424,0.9108061628830292
3.011505752876438,0.019774715483384105,0.00743748962615845,0.8541882708528561,-7.204908172624593,-2.399823213561045,0.8544495056391456
3.0215107553776885,0.07492408041570214,0.025872716593829267,0.8727718740139288,4.794081532338362,-3.607845411700146,0.8763639422978723
3.0315157578789393,0.057373155649857906,0.044735581166406316,0.9559094656472928,5.638431472582145,0.6942801621544009,0.9586740101440175
3.04152076038019,0.014761329933128568,0.11875106604680138,0.8548833301418879,-9.73671237070407,4.157494334658311,0.8632179450770996
3.0515257628814405,0.010422379663710318,0.1609631403981935,0.8401271639860692,4.892289028332751,3.9904552433078084,0.855471454948661
3.0615307653826913,0.05713058408655583,0.022232960113370642,0.8885444145813893,-4.052643149108132,-7.1208380009379955,0.8906567154842867
3.0715357678839417,-0.047553533787094676,-0.030729788150383207,0.9569241932611909,4.28487768491393,9.558030335316609,0.9585977102538837
3.0815407703851925,-0.0016124963980002176,-0.00803555612377502,0.911016045601584,-0.34223246333207824,-3.205824646984252,0.911052910456028
3.0915457728864433,-0.04969890217399877,-0.003124352169073065,0.8984220488997001,0.14387782040499292,-1.325324984442897,0.899801044899878
3.1015507753876936,-0.060588881023160894,-0.07567916631201943,0.9249087336523653,-0.9254882471060935,-4.5132717999390985,0.9299755450030625
3.1115557778889444,-0.004245797343966039,0.01873899986362547,0.8366925101585236,6.060646021167431,13.491644179685437,0.8369130979177862
3.121560780390195,-0.02663666101782009,-0.06998543620109579,0.9502435307608891,-6.1979400626251415,1.2103533514398368,0.9531895093544392
3.1315657828914456,-0.03508628820040499,-0.06602696954595458,0.9464487468362707,3.0392016936750426,-4.254875403407825,0.9493976188694869
3.1415707853926964,-0.01737311660047862,-0.065880255747111,0.9088130395138125,5.5066508244477514,4.319617749812229,0.9113633600644987
3.1515757878939468,-0.0874250833901624,-0.08509100003543763,0.9818024726254412,3.581700402702053,3.845678896550165,0.9893531820064247
3.1615807903951976,-0.05907423317418368,-0.06985923306323763,0.8775784126424574,11.623494571617087,-0.9386351178994196,0.8823343741492546
3.171585792896448,-0.11219014327989674,-0.14687482586761486,0.9930069939986093,-2.6447338136234944,4.203033563916916,1.010060261990818
3.1815907953976987,-0.08273690047325061,-0.1466493494145088,0.9471974036461395,4.786524112967657,-4.126459804154322,0.9620469571999108
3.1915957978989495,-0.10645525905646328,-0.1749454392542796,0.9256999601431951,-0.5304531767071017,-2.4645913747462616,0.948081771318152
3.2016008004002,-0.09482284482849028,-0.0976321101627401,0.9447726944979566,6.167030381763348,-10.051083272830315,0.9545254554516222
3.2116058029014507,-0.06836450026301132,-0.0787999966662227,0.9438154775282835,-0.03844497860684737,-6.619755421097814,0.9495634786536126
3.221610805402701,-0.13622809433486516,-0.09149182890023555,1.0137678332936102,-1.939378909312348,9.038154028353429,1.0269635184671557
3.231615807903952,0.013326714687432253,-0.025826557248832024,0.9026458975908491,6.530361019358145,8.207143138611572,0.9031136300716965
3.2416208104052027,-0.13640146021130117,-0.10360051030503163,0.9222193262409418,-2.45780969509465,0.32894324324481256,0.9379908900280082
3.251625812906453,-0.14051672414297675,-0.06233166942468253,1.0161527660087224,-7.063628794502781,8.314657235949188,1.02771427480809
3.261630815407704,-0.014587704758737108,-0.1415769419274543,0.9386673309672682,-2.5842344158691426,-0.800372433041524,0.94939622383959
3.271635817908954,-0.024668868978861877,-0.09645738953613046,1.017678169965343,3.0951647329426626,-1.2170515128395396,1.022536766437682
3.281640820410205,-0.023982975156218125,-0.031449871332302176,1.0619182714563626,6.960193757935457,0.28255324232778184,1.0626545500570876
3.291645822911456,-0.014002777597890807,-0.012048958136168561,0.9612254507191246,0.5556468764825605,-0.6246079766178271,0.9614029448066026
3.301650825412706,-0.03568254936042314,-0.056782600244902,1.0198118413440025,6.590985336170126,-1.075981617800902,1.0220145301143602
3.311655827913957,-0.06913453361369641,-0.03270614064018913,0.9325332553775871,-6.790874607387968,5.7169905357477635,0.9356642281067922
3.3216608304152073,-0.009372751240532017,-0.09168926231430247,1.0324599825559664,-2.2163173240895144,0.7506782697810155,1.0365656683823867
3.331665832916458,-0.03574387232882095,-0.02011440414418891,1.0092168510617385,-1.4428755857705058,3.5624088221690227,1.0100499324934913
3.341670835417709,0.058171511814420124,0.055817788348228384,1.027422313968693,-0.5727971373625983,5.156902626386655,1.0305804973526553
3.3516758379189593,0.013243541964772294,0.053475944053183386,0.976004478707283,0.42047194125098253,1.9409289782736672,0.9775580854623561
3.36168084042021,-0.009760994137061899,0.0628499249121369,0.9297150873020475,3.454554786960964,-4.851356629541194,0.9318881551050313
3.3716858429214605,0.025958961141268954,0.05292258822775035,1.0423771742090833,-2.2240341908524512,-6.764329444820194,1.0440425476580786
3.3816908454227113,0.07265166570017607,0.06275926951508264,0.9184346379207813,0.695143434765628,0.743903174036526,0.9234387768399991
3.391695847923962,0.03313055204993798,0.0405640786544917,1.0100583580378415,-0.22561445162025826,-0.8562815241246724,1.0114153274487794
3.4017008504252124,0.02873319566587923,0.1187544795431677,1.0772230977050619,-4.62944951945575,0.4369571446006085,1.0841299853680053
3.4117058529264632,0.08966269362131409,0.11402264687553164,1.043900485134842,-0.5683334454071769,-0.08027019624293094,1.0539301615822037
3.4217108554277136,0.09636981952645116,0.12554673156485796,1.135754543253357,-0.7182976494855907,12.917868300832836,1.1467290466552336
3.4317158579289644,0.06434156344704928,0.08132472452534789,1.093501997834593,-0.8254028250152305,-6.65113127820669,1.0984080147532522
3.441720860430215,0.07055690576416687,0.005263439260537392,1.0133255569024269,0.15879728290725373,-9.949731349105624,1.0157926289432684
3.4517258629314655,0.108927750590198,0.1716479400544642,1.0510128113797752,0.3783677030669307,1.6618841675980485,1.0704934375595212
3.4617308654327164,0.02689266450869285,0.09521438509985065,1.0507463975961173,-2.1614758955366513,-1.8821127729409763,1.0553942327848573
3.4717358679339667,0.02962529848939517,0.07685939644771148,0.9773039118900984,6.363573669856324,1.5803393486497561,0.980769066257996
3.4817408704352175,0.0634988858909046,0.1539792619399314,1.0125100952257768,-5.8474031460150835,2.9194151114200055,1.0261181289457193
3.4917458729364683,0.08689973814316075,0.09748588287854724,1.0344187847147346,-3.6048505423494817,6.420523475894488,1.0426299842325024
3.5017508754377187,0.11002051082103813,0.16636697825169655,0.9633727259434712,13.899818121117779,-7.536129101919692,0.9838035847391883
3.5117558779389695,0.16393762886893887,0.1390540791045884,1.0700767511150675,-5.1899567749461495,-2.7835894892858146,1.0914558334407185
3.52176088044022,0.12759419895815338,0.13583192751768675,1.0575501587871858,-6.768773373548793,2.143806294403819,1.0738449285123737
3.5317658829414706,0.07017222170084306,0.025505192278790556,0.9884367103920437,3.6723837250060893,3.8523179784361328,0.9912526347920873
3.5417708854427215,0.06967647289562467,0.14534993921823097,1.0941390355814211,-10.38559926886937,10.967247751441928,1.1059483011827271
3.551775887943972,0.012055616442062364,0.08768102817043617,1.1113324382948053,-1.1763695498621947,4.778519855569336,1.1148511510489192
3.5617808904452226,0.05201591092533587,0.045066024307636274,1.0882592021628121,10.729124625382443,-0.2839429794313856,1.0904332591352528
3.571785892946473,0.02859098811670288,0.058798127442364304,1.0618266351336854,-7.724679610767002,-4.452178764713308,1.0638376132998602
3.5817908954477238,0.04869191792799843,-0.04974457375160325,1.108475013351123,-9.909822428693566,-2.8214492635950963,1.1106584896866398
3.5917958979489746,-0.019689883486790724,0.04643863700302405,1.1135342886078698,-7.4959060097884915,-2.9635141147855326,1.1146761190695067
3.601800900450225,0.0364774793038061,-0.0388563910990066,1.0952593316132708,4.491797841734928,3.276168142568803,1.096555255840556
3.6118059029514757,0.07585116267785232,-0.0685764538589086,1.0387687700114678,5.623883599929062,1.2849872279291525,1.0437895795870846
3.621810905452726,-0.0175096766752668,-0.09060396241380327,1.0936836443324258,-2.562943984892544,-6.618247854210894,1.0975698522930604
3.631815907953977,-0.0031175709395887437,0.027790630296053283,1.1392263227385868,3.416062020005344,-2.1795073454521647,1.1395695032780133
3.6418209104552277,0.0004693266609308161,-0.0723086171941892,1.0489652662741284,6.951276637559948,4.387737767257104,1.0514546524874973
3.651825912956478,-0.06449826282094515,0.02336169842384097,1.1827859579272662,8.936732072149127,1.758311774870295,1.1847735720930337
3.661830915457729,-0.04306362238146215,-0.09191196891899447,1.0504504636153456,-1.2316764058992409,2.8432230800638525,1.0553428173408268
3.6718359179589792,-0.06277553454176983,-0.16145408337667883,1.076949830355379,-11.507358588349934,1.9146085502863153,1.0907928886266578
3.68184092046023,-0.06684729617974369,-0.1419035433260553,1.0400616075273716,-4.104394612048433,8.132153673044296,1.0518238084714817
3.691845922961481,-0.11779008511976913,-0.03317693411204801,1.0829700346855766,-2.134020974676288,1.1802153191218503,1.0898620596830026
3.701850925462731,-0.0843103745504189,-0.1104379688128726,0.9825862259890448,-1.2946939828919528,-1.93011398935349,0.9923610611646041
3.711855927963982,-0.06593823906495237,-0.13642014917719986,1.0400630001710267,-0.9392970050435976,-4.578775205667803,1.05104203188896
3.7218609304652324,-0.02242140978342555,-0.10597339691517377,1.0102112346800158,5.5944729896533465,1.2480472910485592,1.01600187949833
3.731865932966483,-0.049940694783027824,-0.09239594649636854,1.068828994967757,6.372142133437907,-12.20352007387542,1.0739769571122821
3.741870935467734,0.008081450962785938,-0.06362326550022722,1.108830624479839,-0.8583682696239168,-0.9214450091635596,1.1106838359978621
3.7518759379689843,-0.13834487229504877,-0.04754803148612921,1.0882655909670529,5.492424380259093,-1.0291992996067199,1.098053785327207
3.761880940470235,-0.055482557177509634,-0.13690673910570653,0.9340602450768174,1.7883068331554468,-6.822354268086404,0.9456692396374526
3.7718859429714855,-0.08778509754511112,-0.18264502170253635,1.1512561638215901,0.32252986431285857,-4.641329193279979,1.1689551668224614
3.7818909454727363,0.015924373384713586,-0.13295218598756783,1.0602688528537598,4.532720785549819,4.048287650741206,1.0686907456127785
3.791895947973987,-0.12939754249948562,-0.09376512854892934,1.0028864534371187,0.36126024118957906,1.1535587453748128,1.0155377205325193
3.8019009504752375,-0.12524747393079094,-0.1481016044966331,1.0456408804396757,10.28905588548881,0.5089416685366375,1.063478192454919
3.8119059529764883,-0.10644484193126895,-0.13962779733563357,1.0425461355817736,-7.192055833972796,1.5317376696601133,1.0572269723096661
3.8219109554777386,-0.17490569413453885,-0.06526369542536394,0.9962384079994382,-2.5758544954600886,0.46313793974461775,1.0135789645382913
3.8319159579789894,-0.08635553428734981,-0.07451395742249667,1.03522621499853,-0.6325944847697516,6.2143128142915725,1.0414907221732692
3.8419209604802402,-0.08861301547084827,-0.0591478091012167,0.9906252453254558,2.197263452289953,0.6171459085182438,0.9963378475740197
3.8519259629814906,-0.033077389414342614,-0.08664126122078707,0.9963820397332857,6.339802435515445,-7.291065569093752,1.0006887582757487
3.8619309654827414,-0.012930733475019673,-0.04754227442694154,0.9778343401647784,-0.12199283618078324,8.150649824372051,0.9790748023166443
3.8719359679839918,0.07475249777012775,-0.0690789102422151,0.9360240143067488,-7.111148247531036,1.8517013366442288,0.9415417075849829
3.8819409704852426,0.03967136549893771,0.03509012886380158,1.0104341791413738,4.212569482275022,-2.9462686539753387,1.0118213106874803
3.891945972986493,-0.025388390938007564,0.05591061695032274,1.0278820484466102,3.774793830709822,-6.267008591475093,1.0297145589924357
3.9019509754877437,-0.030201536360933288,-0.07464635646412315,1.0198404029054553,-9.70929329689703,1.9795711047902271,1.0230144958554064
3.9119559779889945,0.05038930036944185,-0.015523532856680636,1.030590524880231,-0.019020668353996916,-0.5858600248718773,1.031938414653212
3.921960980490245,-0.02947407473869139,-0.0309813600196951,1.0013426112789814,-7.9507091534014895,7.870733930162044,1.002255252375053
3.9319659829914957,0.13838744643928563,0.023676213055536632,0.9540682639357483,-3.3232554875103126,-1.7295364033341394,0.964343248354034
3.941970985492746,0.11546467202865851,0.06361930070159494,1.0183284175075478,-4.514044634813999,-4.1869039484123345,1.026826310440024
3.951975987993997,0.04198949143252562,0.006055667860386513,0.9041857303391241,4.046323491209929,4.478981091179643,0.9051804369587826
3.9619809904952477,-0.012089937763152314,0.04218715577340421,0.9228338268516927,0.584150870860919,4.626409463584157,0.9238767205039351
3.971985992996498,0.14843799162303412,0.04669537889364123,0.9155660085414334,-6.427955003780138,0.8432568380509775,0.9286955430945024
3.981990995497749,0.08116223205001244,0.11463043564511918,1.0138033515242773,4.400329814786711,3.3817852383745417,1.0234865315427395
3.991995997998999,0.15381356489857442,0.11377451601169411,1.0030931529223144,-7.169029119642072,-0.1884356037111895,1.0211753652924325
4.00200100050025,0.0160591853857176,0.07884980432366048,0.9766131201150324,1.6505689523547182,1.169325505046235,0.9799226374862208
4.012006003001501,0.06844458814874523,0.12693705076269055,1.002291294114985,-4.070053346457779,5.824954412819615,1.0126132108371255
4.022011005502751,0.10004957365716186,0.09241086217613995,0.901341786002264,-1.8283854126525996,3.126591670107515,0.9115737489807769
4.0320160080040015,0.10223417183738263,0.10627941506267195,0.9595218317964584,2.52135374019192,-0.8463721916631235,0.970787971521779
4.042021010505253,0.07620207587428164,0.20211902385281943,0.9328048161103859,2.607246995297645,6.761812729630753,0.9574882146165024
4.052026013006503,0.1274055969142285,0.18253877294574167,0.9785741071154764,6.684845367779801,-11.82427686395756,1.0035735513007802
4.0620310155077535,0.03920860996440177,0.04612849587385791,0.9278393249431373,-0.41126849835726587,10.260366557109675,0.9298123284501351
4.072036018009005,0.0806129528333776,0.14676493339528945,0.911936411604997,1.5322543148167034,-8.529795474453676,0.9271819738595217
4.082041020510255,0.08776689961354707,0.13867236935812216,0.9560322207887012,-2.1886866120216233,-3.13546412386148,0.9700158049626542
4.092046023011505,0.10044862863544793,0.032258859881381635,0.970825741287271,0.9099494131139882,-0.20458767597534522,0.9765414384354449
4.102051025512757,0.10232623403611847,0.12103347034575179,0.8918640631159797,2.1974302400425585,-0.7324033536408069,0.9058373287702901
4.112056028014007,0.0016785037560253166,0.14638932593813017,0.9207306863276058,-0.49154923727188005,5.032055200132773,0.9322969746109783
4.122061030515257,-0.028370667472129234,0.0018748089653615602,0.8696094824328552,-9.018752420462482,-5.289183093051172,0.8700741701824098
4.132066033016508,0.10202510234053801,-0.00010562755597812862,0.7966234142243844,1.6573544816544765,1.303834087415316,0.8031301244227445
4.142071035517759,0.044075349485994134,0.08383465200659257,0.9307955206737663,1.8228073867772852,-2.8910604910987696,0.9356020450040319
4.152076038019009,-0.02099750339028496,0.03328695366633366,0.950717416577058,-3.4008673817397543,1.4757048966870832,0.9515316718932507
4.16208104052026,0.08274149519092175,0.03379448945973088,0.9331302358353438,-6.4219351803625715,-0.32386129898938254,0.9374007998579891
4.172086043021511,-0.0003416017178692289,0.009679060701010246,0.8225594779003222,7.3793957525198275,0.4646782634148893,0.8226164936295881
4.182091045522761,0.04160863987075253,-0.0012926671525193487,0.9027616483416511,2.45722755447201,-2.7496241623217283,0.9037209434426072
4.192096048024012,-0.024989192473558738,-0.10036174626843117,0.8099083225451893,-1.1454051546085484,-2.550319750480412,0.8164854136985498
4.202101050525263,0.06402617664850369,0.005552421816357622,0.9900857221360737,-5.685164415737437,1.4363625701371348,0.9921692989918418
4.212106053026513,0.03860867891436701,-0.000510536227963175,0.8683237794204536,-4.10907414210673,4.718577528780222,0.8691818432536274
4.222111055527764,-0.07112497129258412,-0.0818816538457579,0.9866701335452788,6.512951983931158,-2.991396670989239,0.992613378515596
4.232116058029014,-0.018866132236456612,-0.08310746323170239,0.9727104074277155,0.6883097043402304,-4.343837722864548,0.9764365407483298
4.242121060530265,-0.043081170495412775,-0.1669753366973903,0.8821430529532713,-2.752935335003533,3.067300828359185,0.89883987238561
4.252126063031516,-0.013859940723709968,-0.07303708451950112,0.872522023281065,2.5484461561232807,-0.16251946528844702,0.8756832730973322
4.262131065532766,-0.1364267212005767,-0.07721378572017853,0.9488951728197673,-4.071990937231619,4.15249066992976,0.9617568653061114
4.272136068034017,-0.05863916210347163,-0.11463963297403786,0.8915954527196039,7.504215151401892,-4.5289860668557385,0.9008458514590023
4.282141070535268,-0.04359295874741227,-0.059599351714344856,0.9415826884718489,6.764002674483626,-8.897194627117154,0.9444736036581428
4.292146073036518,-0.18678917429845515,-0.13532650152175635,0.9151672177899461,-2.332870356013883,-2.6650204091316714,0.9437873140525928
4.302151075537768,-0.15908880780687826,-0.09168076231362737,0.8532950360234816,-3.143351235154302,-3.8317630463250802,0.8728270329510518
4.31215607803902,-0.20168310600797357,-0.17064901347856798,0.8340583914079565,-13.0906659934614,-0.39394200040149957,0.8749003150806725
4.32216108054027,-0.11171200065462443,-0.11906759826258774,0.9603189840161328,-7.40790385775684,-3.1842260713519477,0.9740991813506761
4.33216608304152,-0.059628182176847205,-0.12332406685511617,0.9244731172441093,-6.697348874788781,3.705084756682246,0.9345666857332553
4.3421710855427715,-0.016429551129734044,-0.09859148837939548,0.9286145881303817,0.6759517049369295,-1.4407513121125812,0.9339781930108151
4.352176088044022,-0.08271386824665289,-0.1221786751628379,0.9949202885890874,-1.631168522206798,0.7523724938695049,1.0058009710231264
4.362181090545272,0.00124627362476612,-0.10279503416814155,1.0227848253317224,-6.726677437076207,0.7881727922047198,1.0279383109780562
4.3721860930465235,-0.1419299009383127,-0.04620743506100643,0.954585933146036,-1.4058202123227863,0.9747754620609367,0.9661850379692105
4.382191095547774,-0.14990155471348648,-0.09951713115678539,0.9553854125635202,2.5266857382367425,-0.12064555227486702,0.9721807558465477
4.392196098049024,-0.05848948473631974,-0.14718337478672053,1.0017129518558612,2.639196749577936,2.5530034520515676,1.014156202739061
4.402201100550275,-0.026775928150001727,0.032304154493910525,0.9132240177338364,-9.498351404294405,-3.9782756691290375,0.9141874070953893
4.412206103051526,-0.037292957829710024,0.026282839424517895,0.9966540202863199,-0.6413174024191541,6.9970896332694155,0.9976977440611899
4.422211105552776,-0.12825327118569868,-0.09447053417572675,1.0175626505186632,-6.916703884858052,-1.182686916842676,1.0299550141282126
4.4322161080540265,-0.018241880013601018,0.017942336616705804,1.0284839489862745,4.50864348570137,-6.557745689493409,1.0288021806703656
4.442221110555278,-0.06773774143801403,-0.02816585822289281,0.9021565788176581,3.9207320817674924,0.9403667849588653,0.9051343601303271
4.452226113056528,0.04227313050421687,0.023721764441810907,0.9654514444439012,-4.490136131622292,-4.255902412237425,0.9666675908758267
4.4622311155577785,0.038310765760388665,0.03868823059733018,0.9641197774736685,-3.830226012001999,3.326672672544375,0.9656559632062424
4.47223611805903,-0.016077343626409803,0.025379584812133447,1.0175153138183717,-2.3063352524915364,11.048027880211889,1.0179587507154784
4.48224112056028,0.015763663451111867,0.01056012790221602,1.0410061527479608,-11.263966973656697,-3.9328604577892508,1.0411790525389097
4.4922461230615305,-0.0014935446108442565,0.027233505164511014,1.096198099570663,1.679840867202883,1.661861666119924,1.0965373536644265
4.502251125562781,0.057685026336409775,0.02717318166601991,1.0009395982669316,-1.3642227317006537,-8.777527943523138,1.0029686054129776
4.512256128064032,0.11715006291041238,0.041680425850898324,1.0050523367422735,4.8508754128392955,2.269526147206736,1.0127149622327747
4.5222611305652824,0.02779306389589617,0.08913632495274025,1.0915618699567173,-5.492046089812764,-4.42856899899845,1.0955478331730693
4.532266133066533,0.10898225448423023,0.06474791499446803,1.052945369486071,-3.0956147412496584,-3.124173092172412,1.0605486200126588
4.542271135567784,0.06289605223902858,0.14139332307481173,1.1054153750494435,-7.5326262901955765,-5.50643244919914,1.1161949366455193
4.552276138069034,0.05425074212338995,0.18703556825060497,1.0602509674838736,-5.021452817471266,3.6607561302736773,1.0779877368793467
4.562281140570285,0.09182739285122367,0.08761203095023971,0.9915938931253305,-5.909909980341094,5.036521787366313,0.9996832432968595
4.572286143071536,0.04745838877207276,0.1310348308984186,0.9862702190753906,4.979868394232229,0.11692607329253832,0.9960679548145485
4.582291145572786,0.07231058830269563,0.14497591979921234,0.9786585666779554,-3.4913092437569615,-4.3221335266785985,0.9919775343395936
4.592296148074037,0.03959278123532484,0.14298412458368442,1.0924643582884759,0.6208784237230672,7.947615180519312,1.1024928218993366
4.602301150575287,0.1959441050709614,0.12104718150597468,1.1217292316406235,-1.903817019309022,-3.752050638773281,1.1451301155675122
4.612306153076538,0.09644250032360109,0.1507493081880037,1.1575057573222338,-6.347326330064065,-10.810161499637195,1.1712583353052168
4.622311155577789,0.055453558669651036,0.1326402485171692,1.1097230497664128,-0.8415021158582136,2.2919450497853417,1.1189967738464188
4.632316158079039,0.09574260170015442,0.04016920627976706,1.1280236213812302,2.9955166593179734,-5.523873368207584,1.1327919055623086
4.64232116058029,0.07294325509962514,0.1377293923204636,1.0429711569456974,-6.038796962716761,4.943043967495874,1.0545515341575962
4.652326163081541,0.06002243904450825,0.12964964468874038,1.01601114643,4.0455639536568935,-1.9056884833670942,1.0260070044725673
4.662331165582791,0.09338150758324273,0.037043501888356686,1.117959598125288,-4.248604607388481,3.0185662027209808,1.1224642488877439
4.672336168084042,0.0913492122220318,0.06606548383597993,1.0977218979209535,-2.4149196303642038,7.00750173276079,1.1034956691819178
4.682341170585293,0.01706548509089127,0.08647510060625464,1.0833464191300095,2.653415615050239,-6.0442943231036095,1.0869262337656882
4.692346173086543,0.004358816514671418,0.029313983277318427,1.098229589448051,-3.31718078609744,-2.8296856544620272,1.0986293915767165
4.702351175587793,0.008532339688589935,0.08039081184370715,1.0956547415470825,0.18787429667932803,-0.37835536328531716,1.0986331490192967
4.712356178089045,-0.10396096526987897,0.13155573629124837,1.1440663691202102,-1.5734541439404623,7.6877565951717175,1.1562883079071926
4.722361180590295,-0.07591671125701911,-0.039487891408258924,1.1447492545421454,0.6468400335190926,-3.291913589702227,1.1479431590417488
4.732366183091545,0.05689631418777662,-0.08278910917902829,1.107079434312906,-11.903695527617487,-2.972518479745036,1.111627680946006
4.742371185592797,0.059657159432057426,-0.011918541711364332,1.1217714149399118,-9.148409076040414,2.390702877779042,1.1234198394564336
4.752376188094047,-0.04589791005549751,-0.00405720443690713,1.1045429056734235,3.079835030234191,-2.886143628552855,1.1055035547336765
4.762381190595297,-0.015045360944009187,-0.06419116960839545,1.0548875031568594,5.185907028245252,0.7626294144880829,1.056945842254059
4.7723861930965485,-0.03817665736329383,0.008176035057486958,1.114631000386973,-4.552433517657606,-7.757687104840634,1.1153145617897937
4.782391195597799,0.09102625144363272,-0.14243163676111745,1.0056890136836707,-1.2201417608556717,11.071649712782982,1.0197955392363534
4.792396198099049,-0.015312939193770608,-0.050904090567018764,1.1264780137642223,1.4735962645115077,-6.738546151547017,1.1277315407655293
4.8024012006003,-0.08514962862131874,-0.12479753989468115,1.0121908439406682,3.4660880082935206,-1.6087635199510417,1.0234037276536738
4.812406203101551,-0.13298556291599187,-0.01628135375279985,1.084110568613038,-10.138386358354243,-0.16240517921047307,1.092357985004271
4.822411205602801,-0.17089581852388247,-0.00906243535479867,1.0252426875443554,-4.430201234891886,9.563440671783978,1.0394277641503908
4.832416208104052,-0.0846068334528483,-0.15206884768461876,1.0926338079478513,-1.662896899249375,-6.624228904663701,1.1064049389683994
4.842421210605303,-0.13559181441734347,-0.14480698937918296,1.060524178496763,3.515700986180246,9.918520677393756,1.0789187816913208
4.852426213106553,-0.17063067664588205,-0.07644219505020788,0.9795396113649142,12.492152418607475,3.785884105510113,0.9972241910571829
4.862431215607804,-0.13231749912918533,-0.13934315838994654,1.0771796667715718,-1.1400286340485892,2.0854766221162304,1.0941848431010193
4.872436218109055,-0.15325824616794972,-0.12128757608128786,1.023936253818912,-7.034887310519943,-4.923168435089777,1.0424222839208963
4.882441220610305,-0.012747217180140907,-0.11525573769340246,1.0934081676150098,2.01134038600649,2.8557062101903687,1.0995398117504893
4.8924462231115555,-0.04970378526223869,-0.20852658554153627,1.045777727416201,6.60497894770355,-3.617433112099,1.0675227671140322
4.902451225612806,-0.089666345031528,-0.10781314286354843,1.0616968225463592,0.5400706048975046,6.333306265992062,1.0709173031613899
4.912456228114057,-0.009610698234486056,-0.13481587491799352,0.9901274892309162,-4.533242725771464,-4.855310145538666,0.999309827121287
4.9224612306153075,-0.0730103241706811,-0.116910628583663,1.0044978663834527,4.789969707400095,-0.5657924722804198,1.0139105315954875
4.932466233116558,-0.11223049320741987,-0.010817939595767323,1.006882397457204,3.3177280924921746,-2.7763654400658577,1.0131756381456503
4.942471235617809,0.01558702442868376,-0.13550836003572175,1.0684038957995925,-5.1304042209781215,-4.937614812134973,1.0770758355519159
4.9524762381190595,-0.02425188451579376,-0.020776604702633164,1.105110246121665,1.9071280876717098,3.7065990845395715,1.1055715613602874
4.96248124062031,-0.09303307930924459,-0.06335307242809654,0.97658744954814,4.986327838294363,2.6772937370481675,0.9830522937498192
4.972486243121561,-0.04013450995175666,-0.050729099681883216,1.0662391807984812,5.909450212794468,6.045050994504986,1.0681995184016038
4.982491245622811,-0.0634536897113158,0.01591126235209205,0.8994239682165098,-0.33224487654727985,-8.899375541040836,0.9017998744787838
4.992496248124062,-0.0776163467706189,0.006830932461562007,0.9436841287234804,-1.7903972308965943,5.320853511705219,0.9468952918506385
5.002501250625312,0.012860210780511132,0.03192481450335472,0.07687745512030467,37.52182532859205,32.28770967002391,0.08423017219599661
5.012506253126563,0.027780021477853883,0.06532578269563749,0.07405639747050617,32.2935045251888,32.168738046742675,0.10258429453097226
5.022511255627814,0.016104757558194287,0.01365715029009082,-0.012631896328725647,25.115892155262046,21.14051658876778,0.024605807747643975
5.032516258129064,0.04441672187784478,0.012530201238523386,0.02136196087711797,32.523924509976325,33.18435079197702,0.050854542549975096
5.042521260630315,0.08788714125847652,0.0012521869153625312,0.07291954368013286,33.478275644730246,26.64492577168773,0.11420585545924174
5.052526263131566,0.009158313714351815,0.02589688433813543,0.04166167362255579,33.43535516404993,24.52080418498021,0.04990208790767786
5.062531265632816,0.08003281991073657,0.22542074828335792,-0.0029477138478985684,38.092781784889624,24.47774086072502,0.23922469570765995
5.072536268134067,0.008733117106124497,0.15000142487722024,0.05833271756501767,44.928382055074195,32.16770805236265,0.16118126670958308
5.082541270635318,0.006094911500124631,0.028892587354739943,0.011407709640341181,35.617646009205465,28.887125363875736,0.03165541643200991
5.092546273136568,0.07274378473372853,0.037768704716231505,0.1117809939356885,33.91634105421769,21.590156080072944,0.13861141323346843
5.102551275637818,3.2634524387254773,0.13410141311012705,3.698199472717725,33.70389093497954,32.390189075961416,4.934043407676007
5.11255627813907,2.98122922790667,0.14208083688443168,3.4979251313942865,35.62192383453857,22.801959346005862,4.598194743415563
5.12256128064032,3.208302011430932,0.14540402023748117,2.9181512167291537,30.858531198258007,30.699106792591053,4.339349104341667
5.13256628314157,2.8194374050370143,0.10694554608070002,3.5667465897114026,35.60099279373028,31.19249462836527,4.547784720714721
5.142571285642822,3.0296312483125045,0.11362323405352447,3.929369273824925,37.254061681658996,34.42788540847523,4.963015074543677
5.152576288144072,3.2433160885906225,0.13495904713611373,3.9782533710270522,36.04843031787244,38.90842393233426,5.13457038894227
5.162581290645322,0.12147730062299242,0.12001237980479457,0.9155106285930547,8.461732862316024,-4.636865028479668,0.9312998533984149
5.172586293146573,0.043947521651911695,0.00042532203283032755,0.9509438142788429,0.7216323586301842,6.442168112516943,0.9519588769864858
5.182591295647824,0.09299849229677186,0.09414827090161298,0.9487292106013319,-13.516740235536787,-3.1713735840865684,0.9579142610544341
5.192596298149074,0.11968188521454978,0.05596471314213669,0.8842114337075047,1.6967790637811018,5.6442374377469475,0.8940277748843551
5.202601300650325,-0.008327314740214475,0.09893211012445054,0.90273535933667,-1.740786984086566,-1.168034804914327,0.908178416161255
5.212606303151576,0.0943802894400776,0.22991768591546755,0.9790881903271615,-0.3746327805922394,1.0099950537866063,1.0101403198415715
5.222611305652826,0.02529076708488539,0.08848042931232848,0.9486812764821841,-1.843096828928498,-2.4748227544535033,0.9531340795601122
5.232616308154077,0.0774143379714603,0.04298480114154289,1.0263479044827755,4.035232083033437,-5.079977155840146,1.0301605185061802
5.242621310655328,0.0005586572459964356,0.09255601318660935,0.980582147837583,5.5984388927669055,-8.723801938026508,0.9849407476253005
5.252626313156578,-0.06218053478217174,0.05781067866172569,0.978022444551812,1.4152658112932688,-5.276620792962298,0.9817007667921158
5.262631315657829,-0.06433053380225888,0.041460630232871165,0.8508998384216026,-1.6965559356907953,-1.619544266079609,0.8543347917909582
5.272636318159079,0.008215824808230606,0.037316422630977356,0.9582268277250254,-0.20668602404585126,1.0593958941444204,0.9589883568361083
5.28264132066033,0.007488360983589918,0.09622986131849608,0.9173749139199032,0.09799808288814146,5.051896566416318,0.9224386128351021
5.292646323161581,-0.06195261969526772,-0.07662856789435253,0.892733518731657,-4.012150199324184,-2.2287872989842445,0.8981554431008318
5.302651325662831,0.004167876234117705,-0.009632492205128462,0.9291908343209616,2.894643242856174,-4.409803821335871,0.9292501077129179
5.312656328164082,-0.12150763111493595,-0.09243701010086247,0.9688115819759399,2.3002116193023308,-7.213573930013562,0.9807673458197278
5.3226613306653325,-0.05191395285600683,-0.030556323191256778,0.9476045672356828,7.702206198883367,2.4003180895205194,0.9495173317186105
5.332666333166583,-0.11871737900570233,-0.1157342083954001,0.8798990861043385,6.2767489014423745,6.915972576646716,0.8953829486862834
5.342671335667834,-0.0995710212261716,-0.10124339968353058,0.9624492849360041,-3.428374587950651,6.331651339781443,0.9728685627161192
5.3526763381690845,-0.07256525471845598,-0.10467672165302733,0.8951894882869049,4.101491872544823,3.549663740736187,0.9042052599867745
5.362681340670335,-0.12495339652725296,-0.04952843794843093,0.939878934267852,-4.754766915472358,3.1927165863379954,0.9494413244375777
5.372686343171585,-0.10711011338196308,-0.05953608120744547,0.9160802515538579,3.479660504704248,8.488118898546706,0.9242403089246952
5.3826913456728365,-0.04239327515465071,-0.1735353675607665,0.9227274328866142,-2.583070993800539,1.6604073070840526,0.9398604305822803
5.392696348174087,-0.12519234017796532,-0.112870590492177,0.9746181449009542,-5.116266116877922,3.230648380120858,0.9890871653233934
5.402701350675337,-0.0569706698326446,-0.15398532326054065,0.8871353879025033,1.4002267134870223,-1.6039193092599955,0.9022008276818185
5.412706353176588,-0.1563850518914029,-0.18280489652399307,1.0394386470926933,-13.372835640770704,-6.810216854273787,1.0669145306528134
5.422711355677839,-0.07327620149231545,-0.130570544986914,0.8543434426204897,-8.75487787202614,-3.4192445024978815,0.8673642757641982
5.432716358179089,-0.02627865300325262,-0.13345264026616815,0.9189079472048184,-0.8874594188714159,-0.04579519267327636,0.92891979752498
5.44272136068034,-0.21927198060774658,0.006508117595617605,0.9708593839167268,0.4122088331742123,0.30392686250651424,0.9953343661370527
5.452726363181591,-0.13164330339417388,-0.08851025747674524,0.9852744443480076,-1.8465938507909443,9.631429274276966,0.9979628027599051
5.462731365682841,-0.05787960196708977,-0.172960725029052,0.954885512965223,-7.897181493587993,0.40638583795534344,0.972148035845005
5.4727363681840915,-0.09071081439133782,-0.12490895431557293,0.9610186209925325,-4.089459210692528,5.894217220128218,0.9733383217618314
5.482741370685343,-0.05479623212438811,-0.03695506618007433,0.9885100790053182,1.9560466361869695,-2.1753862078815804,0.9907171545231787
5.492746373186593,-0.09540956306719964,0.026169774165805917,0.9606259783682125,2.9089088531418126,-1.5583794288261708,0.9657070529515919
5.5027513756878434,-0.051903542581139626,-0.14677880395763948,1.046124421125577,-0.0811155879797062,-6.645038186117241,1.0576456398525125
5.512756378189095,-0.05432039290578448,-0.14984005662036887,1.022794033093568,5.784168905184944,-3.711640064382859,1.0351378564158695
5.522761380690345,0.022144282085319447,0.05005447357138402,1.0288903709211634,1.9869851172961714,2.6349069568187655,1.0303451921214908
5.532766383191595,-0.012768491914107541,-0.01110673202645664,0.9414110973494089,-3.7372782697910614,0.03780090197066632,0.9415631938933713
5.542771385692847,0.0024719009655645007,-0.060704515159653055,0.9902521928673208,-1.402510267058087,4.714693099486168,0.9921141839192148
5.552776388194097,-0.02373649502018551,0.022960278249247203,0.9837194886237636,-7.014330786039274,0.9062697417252513,0.9842736549716877
5.562781390695347,-0.016217177563512042,-0.12199162658270872,0.9529879124556202,-0.5406949519570837,-1.762268658188709,0.9609010953739945
5.572786393196598,-0.002263403119048789,0.023406182856176756,1.025790927756702,5.560503096106693,10.741484318934795,1.0260604270010278
5.582791395697849,0.05004081103858411,0.05277290334575739,0.9853902625258749,3.426450423554839,-0.46951784356523607,0.9880703576050405
5.592796398199099,0.019834903081343898,0.09527445952371993,1.049493300395998,7.01004662959561,5.81500484852652,1.0539956516010245
5.60280140070035,0.06541587895805488,0.01041776572125419,0.967610573656227,-1.5144262189949655,-2.0060460327233884,0.9698752442009284
5.612806403201601,0.16408881921021137,0.07666689320369525,1.1114016387801464,6.730498972571288,3.5479973969178324,1.1260624120298588
5.622811405702851,0.11249517124180029,0.03645549198127943,0.9848809902996662,-0.9665211322398494,4.640078295758434,0.9919550047769154
5.632816408204102,0.06037617676360446,0.10478201183011167,1.0448157198690433,7.35792541284947,1.0424598528779037,1.0517910634765932
5.642821410705353,0.14349575175576834,0.055354750658934096,1.077488223053483,-0.1092837372106184,-11.772414613483011,1.0884098722500721
5.652826413206603,0.06872184220468013,0.08654569106889819,1.0132866220026604,3.5361568690213834,0.09126230428056473,1.0192951616524826
5.662831415707854,-0.008229990830017617,0.06262071337513864,1.0882316378959116,7.375561821549278,6.152300238799877,1.0900629267204218
5.672836418209104,0.04662441213338971,0.14899128530629474,0.9877926373075367,-0.967138142906028,2.637404165138652,1.000053265192902
5.682841420710355,0.005600611175608131,0.16189080450511437,1.1253437029770563,1.091944937720871,2.229194376146233,1.1369425883741742
5.692846423211606,0.08240799422477749,0.1082493736143408,1.0567625158886167,6.444317126031511,-8.611284669787596,1.0654839367101163
5.702851425712856,0.10046924224137266,0.12136988768627549,1.0293723351896793,-0.665015819650318,-3.6022753533752945,1.041360707309138
5.712856428214107,0.18166160553652064,0.04497811717563058,1.0471822468022838,-6.604461412530806,2.056788155757195,1.0637737672873169
5.722861430715358,0.11122614007898513,0.09887189326859303,1.1053368703514697,10.715035272924549,2.05191638393446,1.1153100476879816
5.732866433216608,0.07975124969378726,0.10633730050898932,1.0382100564713865,-2.348822321685684,6.073333900664513,1.046684290827745
5.742871435717859,0.12684291285216998,0.23348681510309338,1.0322910591236716,0.7937802546877142,-0.7243337757304719,1.0659409214935323
5.7528764382191095,-0.03160970298555886,0.03913812366909429,1.060785000774764,5.780033347255635,2.029120433369071,1.061977299152806
5.76288144072036,0.08329247409096376,0.15902295736026442,1.014886647157681,-3.0424695186560093,0.08187120965646852,1.0306409868556352
5.77288644322161,0.10170504347692089,0.12563707921237743,1.1663989118837583,-5.039339566110651,-4.934713682507784,1.1775461830371134
5.7828914457228615,-0.01992533974236392,0.0788365872804606,1.0484477537200754,1.2686864838741658,-11.278956655473738,1.0515963669291322
5.792896448224112,0.10134314443832959,0.14091755494333644,1.1194984258967864,-8.965381989561948,2.1550484606503835,1.132874624926006
5.802901450725362,0.05066697755324427,0.05909586224457142,1.0892918501463664,-1.4395303843396012,0.8697360420640567,1.0920696856630094
5.8129064532266135,0.002132909055386878,0.04693472548390877,1.0302401763668647,1.2251933215770296,-3.090875210500845,1.0313109321430258
5.822911455727864,0.04339868561304115,0.011455478118395014,1.0795633745390152,-1.3497594841258207,-8.095865282579325,1.0804960682658344
5.832916458229114,0.1140061157788569,0.061744211587295886,1.1191999166773086,-7.7172547159287355,3.1486975720436905,1.1266846034228093
5.8429214607303654,-0.0017293639875718674,0.04183624960194824,1.0704693715227067,7.970889781020061,-1.3296003709777602,1.0712879808197124
5.852926463231616,-0.00956737337100257,-0.057657947598033873,1.139165114485673,0.5176907697458769,2.784373611840728,1.140663461155653
5.862931465732866,-0.05582106649128557,-0.10538598554706641,1.1299578276432671,7.155760588808705,9.320242652058791,1.1362336421996324
5.8729364682341165,-0.08579966366767638,-0.062117966103107,1.1239479612141294,-1.3001812509022237,-10.707154401598524,1.1289283606658447
5.882941470735368,-0.01169116922840778,-0.1038514802866264,1.053889925583487,-4.4000599084538194,-3.4980040435118194,1.059058916511267
5.892946473236618,-0.10523212830052209,-0.07808975313686221,1.0215051871275238,1.3459046012757994,-1.0468780665595663,1.029876039967952
5.9029514757378685,-0.06727113927262322,-0.02314743462610444,1.0432008757615423,-1.078935631641098,7.274130870733253,1.0456238698014
5.91295647823912,-0.10224766233127068,-0.11690283074595731,1.0818388254997222,-5.88880728995679,-8.182015096032424,1.0929300529527248
5.92296148074037,-0.06092883996756058,-0.10399456657143494,1.0972321438135937,7.348921293937478,9.679305128403023,1.10383222041846
5.9329664832416205,-0.07362216686528436,-0.10546518981513835,0.9590564437131868,-3.11135111446998,0.6792795078314524,0.9676426984917873
5.942971485742872,-0.04270069760908568,-0.07107168967611252,1.0647051209965814,-9.201331923977843,-0.4800033086692912,1.0679286162127437
5.952976488244122,-0.12314127433781494,-0.22951301197332336,1.0702826485741614,6.6408302697866635,-0.9902988160945321,1.1015193797430574
5.962981490745372,-0.11294812445224879,-0.1496802679633611,1.0455687643964091,-2.521490079063116,-2.181315160900144,1.062250207115206
5.972986493246623,-0.14893445013346499,-0.1094313325992459,1.1208872261008467,-3.0391194630781215,5.240583796345773,1.136021505354126
5.982991495747874,-0.12147384655633173,-0.05910707244168831,1.0741098539586533,-8.82693793514987,-5.342603770412194,1.0825717157680121
5.992996498249124,-0.07838753803543873,-0.14129819760052786,1.11505808981731,8.704707432984954,1.7270709082192681,1.1267050769529012
6.003001500750375,-0.056152635903981125,-0.20663011538559217,1.0351195525137538,-6.447402936048437,-1.9209083285348778,1.0570343471711325
6.013006503251626,-0.13565753624531976,-0.07647355174541934,1.089013596512935,0.29224740352824946,-3.8106672425704895,1.10009171647038
6.023011505752876,-0.040470828530839914,-0.13250946888462897,1.1199803337209622,4.563101612702202,12.929875878419478,1.1285178754577958
6.033016508254127,-0.009497338428499758,-0.15221841059701482,1.0997766483654836,2.108584665015485,2.0952536737673,1.1103014546743255
6.043021510755377,-0.04894717990274636,-0.11475997956237888,0.9754404404561947,-0.298271559960958,3.066327723305719,0.9833868680264978
6.053026513256628,0.03277160852206404,-0.08250808640979959,1.0131231054603862,-8.50832929143708,5.688883903343312,1.017005402869536
6.063031515757879,-0.09042582775420972,-0.09232087458574792,1.0042254786300577,-4.04862417883642,-7.106749726592736,1.0125061906670398
6.073036518259129,-0.10397557263512786,-0.16036970781842186,1.0415544952266234,0.9390016902126102,8.761459545610158,1.0589452910407389
6.08304152076038,-0.12015142233737947,0.007394817973757975,1.0469628054557953,-3.935870349934982,-12.544785892475378,1.0538605997144166
6.093046523261631,0.054513483105750146,0.039397273101485296,0.9662133875852863,1.0167972999938386,-3.843832050192603,0.9685515862963565
6.103051525762881,0.023615723750333453,0.02165302868613197,1.0070367340944637,3.4087170440757086,-2.295158365894502,1.0075462966410915
6.113056528264132,-0.0005791960949238645,-0.05424423858052217,0.8981235651579569,4.812514429000508,2.9086168248525297,0.8997603631964101
6.123061530765383,0.027472926470537604,0.006094817488080008,1.0666951217278022,-6.130896789063417,1.0935913307074387,1.0670662543661287
6.133066533266633,-0.03169784035137393,0.029165868654780974,0.9644743864178547,10.98323027489477,-0.8340737034919663,0.9654357788239601
6.143071535767883,0.15765198924315627,0.07237698779287345,0.9884132255159822,3.837396722770653,-0.05998672313861933,1.003520444460003
6.153076538269135,0.05216091167303344,0.08825684752503052,0.9657104902176569,-0.008570768345319786,-4.890115117612841,0.9711368506848278
6.163081540770385,0.06092054654278371,0.029832278236122084,1.034127486385469,5.4476829153832025,-7.486161972420867,1.0363498134866225
6.173086543271635,0.10078086798244884,0.0814908219656951,0.8306580760145541,11.827038859999867,3.6325581116803014,0.8407082589484542
6.1830915457728866,0.09675985898276401,0.11011529710587609,0.9674980672418613,-7.193600505284348,3.4685305626809266,0.97853991185021
6.193096548274137,0.09119049495327339,0.16878666859451852,0.958934184398069,-1.126313212456768,7.922471875785293,0.9779363046089702
6.203101550775387,0.04673630253152021,0.1387373573557791,0.9375543239309759,-11.892158299366642,-3.95008548407604,0.94891540540875
6.2131065532766385,0.11499389586557268,0.1491574079793034,1.0426857398772642,0.9632576632401234,3.4640760515046134,1.0595589085014785
6.223111555777889,0.1895128737020878,0.11868531005047135,0.908285815102551,1.8269712096257038,-1.4185336418236587,0.9354060369898761
6.233116558279139,0.1654534925370199,0.18834194553530043,0.9876714896860894,-0.19581057721379716,5.952374925967411,1.018990931352904
6.24312156078039,0.1793568939107199,0.1401252148924749,0.9634866566615269,-3.2726678549915493,5.109813883390708,0.99000530746394
6.253126563281641,0.07437670409914582,0.07687058999616755,1.0055161647361053,-10.247572580941625,1.0560469961222836,1.0111892697535003
6.263131565782891,0.049418956560547185,0.18884753559443102,0.9060311297607752,1.8676684170588433,-1.6976507833299328,0.9268214677397205
6.273136568284142,0.09030662542373506,0.15081032934141234,0.8998864770185059,7.277172419576625,4.804660893041307,0.9168940579763106
6.283141570785393,0.0958435137139943,0.08951652066304736,0.9886858498073139,-2.95509227866716,3.234522616282829,0.9973459260466615
6.293146573286643,0.1430379240640115,0.0820193693985947,0.9527074352690946,2.200299645115725,-3.422202010430913,0.966870457659195
6.3031515757878935,-0.0021535363279042707,0.11379241144644212,0.8519729122887219,-7.840721567100253,-6.638993367397155,0.8595412694543748
6.313156578289145,0.1520337581885223,0.11382673042196914,0.9002594423271499,2.2860653184625694,-1.4426645034089811,0.9200749163446815
6.323161580790395,0.05977601850040789,0.09107630939678915,0.9447816273012576,-1.9669114887232853,7.577069076741045,0.9510417392560188
6.3331665832916455,0.03758693951219272,0.08628262528362071,0.9658270345836215,-3.812089753014572,5.732435793665191,0.9704016334386082
6.343171585792896,-0.0011733825479586305,0.14431607218687872,0.8886970229801731,-3.801818206080653,-5.561637348352903,0.9003393272382777
6.353176588294147,-0.043442394885520846,0.10073768406106544,0.7759129885015243,-1.9680579101650497,-5.838787079499605,0.7836301987473067
6.3631815907953975,0.06982491180276046,0.043931438688848884,0.9470049848087135,1.9121665784626771,6.373419248397432,0.9505913585058972
6.373186593296648,0.02133157746209499,0.06826434396158391,0.8592991360878093,-6.560816005977589,-5.6781795237891455,0.8622702952872621
6.383191595797899,-0.058059016112256966,-0.043899360526622105,0.8191745750234162,-1.9855766578392642,2.54647661821004,0.8224019622856965
6.393196598299149,-0.06962391611611943,0.014052379481814113,0.7784074380312188,-0.20735888999573834,-3.0803560766816185,0.7816412851473309
6.4032016008004,-0.032905931111179086,0.07112528211064831,0.9609609285473861,-5.495196122659296,8.085224622608413,0.9641511874453443
6.413206603301651,0.056293796482059816,-0.04349103050851049,0.9271860791135891,8.983326008375085,-3.8521239956893942,0.9299110100214355
6.423211605802901,-0.0508300852423446,-0.08780231763995147,0.9102192997365018,-4.267477400306708,5.716807651029141,0.9158559483682457
6.433216608304152,-0.12321678933682005,-0.09027601444675072,0.9919514500296185,-3.347184568167452,0.9242932703018234,1.0036432708760255
6.443221610805402,-0.06994122875624627,-0.12366654252945827,0.9556125860126005,-4.891539749112489,1.2609742711714336,0.9661162475431275
6.453226613306653,-0.08014728350438094,-0.11905142142678207,1.0060514931417697,8.992400435690588,-9.851542906757004,1.0162364069691918
6.463231615807904,-0.20936177946751455,-0.10794634171402459,0.8573291071141775,2.7645261429974077,-11.014566766028594,0.8890995249669399
6.473236618309154,-0.08428544345087265,-0.16816319110891054,0.9272014555973414,-4.682960031218211,-1.1028297013365698,0.9460895486598881
6.483241620810405,-0.09912737776361685,-0.10431586480633939,0.8502838583435464,5.531157794299844,1.2345303170830586,0.8623750207607902
6.493246623311656,-0.057660114274229346,-0.06585066032854794,0.9220613750733577,1.0034934714443915,-5.625989138688617,0.9262063364315719
6.503251625812906,-0.0037296981159046227,-0.16080081244315228,0.923723372508794,1.2862671055575083,-5.443467052381711,0.9376223551352825
6.513256628314157,-0.0423261968263358,-0.04242114178237996,0.9703128335340747,-1.7223860437622633,2.8073631491306648,0.9721615375691569
6.523261630815408,-0.1133140228549177,-0.09430390156623167,0.9442835953101025,-3.7470799347848667,2.814272402285653,0.955722136396323
6.533266633316658,-0.15513367654466947,-0.06823982804790024,0.9763845961617539,1.6888304952730069,-0.6887053019396352,0.9909843648374197
6.543271635817908,0.030199367877728506,-0.15105407443432428,0.9837704037153379,-2.7254361499779516,3.9010086059303752,0.9957577729797863
6.55327663831916,-0.09290951308720026,-0.07231826039217881,1.0598934789166574,9.083778147875524,-5.871011478600733,1.0664128164356927
6.56328164082041,-0.09134958523516078,-0.16505195481673535,0.9400839944286331,-6.346455526215521,-1.7796745854348537,0.9588247030048589
6.57328664332166,-0.08825063623490134,-0.059940883213455975,0.9126407623949084,7.680783864274726,8.239388028918366,0.9188548554918964
6.583291645822912,-0.07102516499007276,-0.08852331664448204,0.9759681383169365,-0.5565942439890035,0.3416106496990877,0.982545041543355
6.593296648324162,-0.08099734538490422,-0.06087262874720932,0.9276382952220682,1.4954286701055295,0.6315625729349967,0.9331553212903531
6.603301650825412,-0.09436869809365162,-0.13760244758081036,1.0460418698473648,4.1657888331471735,11.529732929838698,1.0592655371689819
6.613306653326664,-0.08409468897464166,-0.1128555824089767,0.9620642468200993,-3.151246475022181,-6.996710829243854,0.9723044349400737
6.623311655827914,-0.04872968616507445,-0.026649016272460187,0.9523037295747766,4.321241923493183,3.982151833210552,0.9539219809523554
6.633316658329164,-0.06400122781160084,-0.09161338731710514,0.9614362988658672,-13.537719276905886,8.319931399040497,0.9679095653386237
6.643321660830415,-0.06173918381829502,-0.008155959016368002,1.0253904878534075,-3.5999476661096956,-1.6242896324927305,1.0272798543076151
6.653326663331666,-0.009708505472264158,-0.08639291055124308,0.9860834975356533,-4.620314036705327,4.2981539342742305,0.9899084069671127
6.663331665832916,-0.01651976369592545,0.03788362724347419,0.9664080295909085,-6.267530061858809,-4.910097486054524,0.9672913477662634
6.673336668334167,0.08273609105759884,-0.05258243578426817,1.0862843181410817,-1.0747741903947556,-3.4336619778367576,1.090698763708721
6.683341670835418,-0.11380109657392999,0.0501118694988409,0.9647239280817386,1.9287498409084742,1.9248320802381715,0.9727045525027408
6.693346673336668,0.08429390663692157,0.06694382353125822,1.0138023171871364,3.5132999924965294,3.9928333655529507,1.0195008958010314
6.703351675837919,0.10261388890107435,0.013532964209952723,1.049092436412415,1.204383786002038,5.604682562031229,1.0541857955092389
6.71335667833917,-0.053284383405692644,0.08956348221189414,0.9393107602266944,-3.3284673244677343,7.848142934697465,0.9450743606396778
6.72336168084042,0.042681813986606296,0.08480154559542627,1.0492241176323474,1.8450821891258355,-0.3372327927759106,1.0535104595598177
6.7333666833416705,0.04991015764051185,0.05523654831872478,0.9767086076299063,0.6214284742542535,5.96805877586294,0.9795416297045357
6.743371685842921,0.005896725675456765,0.04109903828980697,1.074761741620835,4.680280839680081,-1.7115242172457448,1.0755634354020636
6.753376688344172,0.044196051037792033,0.0015729779171739927,0.98954106752747,3.884683514657583,4.510456557941341,0.9905287928729118
6.7633816908454225,0.03330997423290866,0.12408902217242479,1.076242525981559,0.15238206960314435,1.0374439892609089,1.0838845023978672
6.773386693346673,0.18106790841408837,0.03390512492338593,1.1006930468448326,-4.486265030806284,2.2283895354096197,1.1160019392125105
6.783391695847924,0.14365862980552252,0.12101686214984474,1.0921252500337497,-3.264750779160404,2.1175393701101872,1.1081608387790443
6.7933966983491745,0.16263374650803203,0.10569477930587645,1.0651143106116168,-2.7489467981901665,-8.023525048989061,1.0826308773286564
6.803401700850425,0.13605393535162943,0.15392153735127098,1.0443103252088757,-1.5763316695812788,-5.620609294303867,1.0643244657166873
6.813406703351676,0.043153448207878475,0.1044249691479947,1.0302024810142232,1.3402521379487664,0.5127071990876121,1.0363802131272337
6.8234117058529264,0.0717417516955473,0.10108892869408861,1.13553440097823,3.575871950640292,-8.436395398205843,1.142280274821312
6.833416708354177,0.11954519867853122,0.15068529995497715,1.02976876141439,-0.2555934650768883,4.156055515998779,1.0475785489091203
6.843421710855427,0.029862743242511453,0.12591586187873632,1.0154438890983122,0.08062393950236219,4.35777983144071,1.0236566219263852
6.853426713356678,0.1213482091928833,0.11864574308025559,1.102903952255162,0.7165315250000186,1.635852764388951,1.1158849977150165
6.863431715857929,0.06731507762372668,0.11866099652838644,1.0319441376131597,-2.5795265656617,-5.605670063789611,1.0409228861576472
6.873436718359179,0.053208706985859194,0.009561090675651585,1.0261336649913397,-4.626961288214781,6.900694694342574,1.0275567523901412
6.88344172086043,0.09919589737979143,0.11421691276288931,1.003106843727578,-8.77718948655355,10.18605319859179,1.0144499342753053
6.893446723361681,0.07674514982994844,0.09606182080745584,1.0525508558573138,-3.475746790384362,0.7353841372298698,1.0597079765695967
6.903451725862931,0.026670288867854053,0.0028281601617447943,1.0737244517830284,2.3657272663389346,2.5526768922561818,1.0740593564393732
6.9134567283641815,0.09229974256268458,0.028995879189656553,1.0909294842108466,-3.5145571901978374,1.0086932739802195,1.0952110038744418
6.923461730865433,-0.03054438627631933,0.026245171743029087,1.1270028174818214,-1.1890351871296985,2.651845944993996,1.1277220930640588
6.933466733366683,0.0431804072826026,0.008135513102380655,1.1061908010693584,2.3321564370615846,-0.5977937831319804,1.1070631520003722
6.943471735867933,0.030755148191215668,0.01801310067978251,1.0704551787889194,2.6034474821133435,-0.17282119921901667,1.0710483839362166
6.953476738369185,-0.02567484857391541,0.0593313071617001,1.0699858868427548,-5.3976642608301955,4.528588002486827,1.0719371249758476
6.963481740870435,-0.005058059478902369,0.02845068367443152,1.1050447510085804,4.9852967822682075,11.728120809482203,1.1054225106713043
6.973486743371685,-0.09481431549114647,-0.1043213236778279,1.1425520667894074,5.636750446777427,-7.0003561720086935,1.1512158434979494
6.983491745872937,0.0034613810830316713,-0.02018446433747362,1.0843733865571625,-5.6492492860927985,-0.5190624220148344,1.0845667500126686
6.993496748374187,-0.061919759181635683,0.0032370831453870097,1.0534854595800172,-4.119184348205771,-5.902302426160411,1.0553085562198963
7.003501750875437,-0.088071769042532,-0.054982315585435884,1.0259368059786331,5.9554534157309575,7.960124492880417,1.0311770077882154
7.013506753376688,-0.01795395639572024,-0.0299362799657793,1.0017160827913092,-0.7342676062765043,-2.938689846599492,1.002324117205215
7.023511755877939,-0.11318991866214051,0.0070462413230352045,1.1054493380193453,-11.098889737259254,-7.21600396892897,1.1112514774482567
7.033516758379189,-0.1549668322571887,-0.050267043621463794,1.0989634471845244,-6.998407523663431,3.190934994242867,1.1109735158958394
7.04352176088044,-0.16786493175917727,-0.09557473791749202,1.096637150493775,-1.2468481258624062,8.721555573715555,1.1135197374477102
7.053526763381691,-0.06407113932846542,-0.0609915405706592,1.0588235877823833,-5.8152132514230095,3.3179893428038136,1.0625123382626613
7.063531765882941,-0.1615242407263304,-0.10975893606697493,1.132882055853799,-2.067118853182207,1.0239893864095861,1.1495907345069818
7.073536768384192,-0.011647124892183558,-0.11806904862543438,1.0354080331271085,0.16198106841789364,2.0457046138799697,1.0421831656794869
7.083541770885443,-0.20409619253390007,-0.13757037835334338,1.1042652884929676,7.311273020173644,7.074203314127773,1.1313632008234906
7.093546773386693,-0.01451078019920203,-0.041029650394839315,1.0512717392641215,-1.4522695811389452,-4.370996350070749,1.0521721649658498
7.103551775887944,-0.08684610987457714,-0.15779781317874975,1.0193281295051955,5.362708997863795,-0.5592355204315648,1.0351194289766295
7.113556778389194,-0.09905030120185487,-0.036439188496096495,1.0757497758074481,7.143800810183852,-2.2634507425476666,1.0809145927297896
7.123561780890445,-0.1170732426578864,-0.08279953979390811,1.062835060114164,7.17154834676038,-5.839326536458551,1.0724645788763347
7.133566783391696,-0.06433422061228256,-0.17111454033596038,1.0562963513080783,1.4237729669278412,-1.641876297084012,1.0719986285639251
7.143571785892946,-0.07955840440081247,-0.07482953848591296,1.0384830571529777,-9.81644573919487,5.538605479912243,1.044210735213258
7.153576788394197,-0.014903721699584586,-0.18908390434307398,1.0283857600534898,2.3041243270193266,2.8330107419636272,1.0457304218979733
7.1635817908954476,-0.05585338906384525,-0.042602324954784894,1.145463391572397,5.241999439067705,3.2215525005410024,1.1476153277967358
7.173586793396698,-0.04475821631773898,-0.01846639111954986,1.0809386560857364,-0.40533552717708565,0.7323780582665911,1.082022496877659
7.183591795897949,-0.06049386437197047,-0.08039370229613588,1.0534786757019359,8.722919350376243,2.616618913642943,1.0582721649718652
7.1935967983991995,-0.03465929135862326,-0.03199702740930474,1.0184833148275085,4.299167807337288,-4.002951711740527,1.0195750775801375
7.20360180090045,-0.0055137976847562265,0.0726232083322833,1.0587659829032317,2.841366885763921,-1.5475494296361463,1.0612680806028367
7.2136068034017,-0.09523681783210021,-0.03696141305221953,1.0297957208299244,5.431903556029189,0.9600211848433837,1.0348504356501111
7.2236118059029515,-0.06583775368003453,-0.051059558442528685,1.0006816112608805,1.6668492563043904,1.3875792944094512,1.004144100930564
7.233616808404202,0.05001453780372276,0.08950476984623434,0.9796705606368681,-12.464052496976768,1.6009392746093651,0.9850213018993563
7.243621810905452,0.0325100501789115,0.12688949345355705,0.9862967977149264,-2.495694757351828,-0.6916764100818895,0.9949568935859754
7.2536268134067035,0.0255765178809954,0.04191560523074759,0.8273461699239583,5.9858401362392675,-1.8871170056516484,0.8288020035669678
7.263631815907954,0.04606150147500715,0.1047409175565028,0.9919675163292534,-4.03795670049148,15.78885641522149,0.9985448789018638
7.273636818409204,0.07230566523528052,0.13298569173718042,0.9526430899107511,-1.1173625261846958,4.533936364661994,0.9645942982345668
7.283641820910455,0.03702285177507983,0.039688791321738276,1.0524032015744444,-5.2241815695153555,2.065737379763112,1.0538018743550803
7.293646823411706,0.03336114700632558,0.06246636816333605,0.9695268525743745,8.919612976008844,-1.1660424910319698,0.9721097320487374
7.303651825912956,0.08940976756872253,0.15708473143434287,0.9050020376419292,8.407462287090077,-2.256094134719383,0.9228750768779795
7.3136568284142065,0.037021667459604175,0.1873790815438524,0.9579605233215551,-4.419344475703647,-0.6540029686347784,0.9768161998575858
7.323661830915458,0.11157655604734454,0.13754074492266286,0.9042793485692885,0.73649000194542,1.4641442179334172,0.921459670643357
7.333666833416708,0.01009234957380567,0.07027511806773451,0.9765255763779725,-3.4024702388202384,-9.402177720315407,0.979102981845978
7.3436718359179585,0.14951902530957495,0.21702654771692337,0.9638232445522865,3.0747231951568903,-7.846947976873419,0.9992055384568022
7.35367683841921,0.12327661298494051,0.09302754174654779,0.9937508508119274,2.5484153862116448,-3.1844119446947876,1.0056798697010267
7.36368184092046,0.11275922403650099,0.10319239572639605,0.9030710295295235,4.058527858066327,1.0356971838928426,0.9159151693888361
7.37368684342171,0.14812481029250696,0.13590520503875858,0.9412554110390139,1.6595922385394366,-1.196365735759257,0.9624826923072648
7.383691845922962,0.18003040657894367,0.19381604226271648,0.8684372334870716,14.67703103194234,7.390606130497421,0.9078319415167332
7.393696848424212,0.14400407814009503,0.15464148869463737,0.9690989829699669,-5.139618825053694,-7.411983934978844,0.9918689446394098
7.403701850925462,-0.0034223828525644234,0.12708886947491693,0.9575148524113133,-8.553016772182572,-3.7567273480168515,0.9659182087718716
7.413706853426713,0.01884475391237883,0.122552749204902,0.9541275725390077,-1.9654510035073076,7.600458704955506,0.9621505733339648
7.423711855927964,0.04472562041421657,0.09333559259097392,0.9274104286660672,-7.839941327801338,0.6555966233757342,0.9331677325991954
7.433716858429214,0.06944242512550919,0.10967242286388632,0.946292830059792,-7.462311350029964,4.424212914005793,0.9551546529053384
7.443721860930465,0.08532065318747539,-0.055152761287892094,1.0042340832768877,-5.0065732709898345,10.256234716347317,1.0093599630226016
7.453726863431716,0.013690123793429189,0.04514240438783304,0.9084685100049257,-4.6109445271581375,-3.469022089509113,0.9096924149590145
7.463731865932966,0.04921604749956585,0.05991934787669337,0.9286088703156737,-4.7730905097503005,-0.49657168896016035,0.9318406417464306
7.473736868434217,-0.008501084491637407,-0.022429029629740888,0.8665743269821488,2.5910947522270575,-1.3621345046543578,0.8669062198370882
7.483741870935468,-0.012291818144843529,0.041257052296282654,0.8769248143898498,-2.5309453054266804,-9.772965022416377,0.8779808444665275
7.493746873436718,-0.06326682902420612,-0.0017440900674600777,0.9249406743181013,-0.8975728743624007,-1.5519840187798453,0.9271035457342214
7.503751875937969,-0.050403660778162766,0.08268338674863344,0.9752146820145784,4.4711638725046745,4.405310936903327,0.9800105853922495
7.513756878439219,-0.0830801972378121,0.06005582591234833,0.9074279087244213,-3.831612623907131,2.7029477090612044,0.9132001045395608
7.52376188094047,-0.07534540231310485,-0.055152366052994,0.908925302323559,-1.322729493523611,3.0954158469400506,0.9137088805166228
7.533766883441721,0.015414178252569327,-0.052263379471721945,0.9011097455913644,1.8287999304645777,-1.8775449031974976,0.9027556875061716
7.543771885942971,-0.09497736566869269,-0.060706283752934284,0.8957004081921609,-9.707839003101107,-3.2804861800282072,0.9027652929261626
7.553776888444222,0.0744797995175196,-0.09115013827720105,0.938419253682772,-11.924527544752912,6.346278359493103,0.945772850068479
7.563781890945473,-0.04137447078163941,-0.0694971897894143,0.8502844991201317,1.7305866439886137,-2.486585731788348,0.8541226116109208
7.573786893446723,-0.06485495540660624,-0.12683021735399944,0.9909105964263178,2.460071402834493,1.4704101939660705,1.001097337617485
7.583791895947974,-0.12412333750172296,-0.15397730493807105,0.8955427825081446,10.321100674262054,0.8166734033876922,0.9171218504926094
7.593796898449225,-0.05226001137117683,-0.07359504521493823,0.967087154028878,0.7904743793340496,7.3085850812855915,0.971290328869993
7.603801900950475,-0.12101118649867347,-0.07919867501305117,0.8698909646729045,4.098698586290474,4.857061788361799,0.8818312921422079
7.613806903451725,-0.08990296756937685,-0.15541993794497352,0.9694449715358568,-0.9773632179298691,-6.476293103335604,0.9859317692035073
7.6238119059529765,0.029454504348208718,-0.07349189554014723,0.9724170626634705,1.4861361079254318,-5.937765833875201,0.9756349574997477
7.633816908454227,-0.10463851585609349,-0.15138151150209975,0.9610425856835519,8.336284208747669,2.894549090345671,0.9785031591786271
7.643821910955477,-0.04238074134513137,-0.10715502728939912,0.8953098475747716,-10.619964090628178,-0.3216882368958326,0.9026948821582603
7.6538269134567285,-0.13373509052679614,-0.07727432249397928,0.9608833800498913,2.0680812878584027,-2.2758589197688197,0.9732179948044619
7.663831915957979,-0.09779674991107773,-0.11693741869866121,0.8927929642006311,10.67793365038683,5.078139419972354,0.9057139952055645
7.673836918459229,-0.0037498898022157445,-0.08801086029373276,0.9430011917951592,1.4101710960467126,0.9372969104445541,0.9471067632164086
7.6838419209604805,-0.1187004685199897,-0.13064402095110017,1.0109455491332355,8.252864816164239,0.26228693444721973,1.0262400132276248
7.693846923461731,0.009325365083702561,-0.1073798045507775,1.0032752142941197,-3.146060747647212,3.8991432037752483,1.0090483340634477
7.703851925962981,-0.038814611415416846,-0.09933562136984576,0.9682814841364993,-0.16023747081856754,-1.8755449747178223,0.9741371424259754
7.7138569284642315,-0.09428163481256499,-0.11671887254843386,0.9229681589940051,0.16762351194293762,7.842594927362771,0.9350842445409346
7.723861930965483,-0.025647822213951038,-0.0775605591558616,1.0082645597976074,-11.087955396793854,-3.94023811616504,1.0115685214876704
7.733866933466733,0.000982069281891318,-0.13460569878252154,0.9813077722740651,-5.840889139251001,3.2846453317104407,0.9904971491782769
7.7438719359679835,-0.006323203961308366,-0.06945412984370705,0.8687393847359455,-5.484375396919931,7.169164193299223,0.8715342664818589
7.753876938469235,-0.10521445999247854,-0.0462876434660304,1.0283518951921882,4.110330390162637,-6.8864774463605,1.034756130145897
7.763881940970485,-0.05200806641363313,-0.03159043677163664,0.9925084971782235,4.360765528420275,-1.716675879262246,0.9943721192986474
7.7738869434717355,-0.016774941695511743,-0.017353684195062745,1.0583625324386743,1.6201822135326664,5.711036964427789,1.0586377090837231
7.783891945972986,0.003187780338254704,0.005203132158901976,0.9480019075339499,4.120514484278529,5.786222738655126,0.9480215457550295
7.793896948474237,0.049163145441365116,0.04572752458090065,0.8484468565940946,-0.8207470636088697,-0.8574780019411964,0.851099341932765
7.8039019509754874,0.03800279979645304,0.07866715340637453,1.025729550682447,6.009658347697716,-3.6733554683842975,1.0294434637029106
7.813906953476738,-0.02703367945316386,0.01519198483639609,1.030809169809065,0.0439422131603591,4.779679111653811,1.0312755018861348
7.823911955977989,0.06885102175729937,-0.0003506877210557799,0.9361010920549707,0.28932023713378235,5.917745512908024,0.9386297676535784
7.833916958479239,0.08984053156338921,0.01907127254688251,0.9760473506204012,-1.327963166312057,-5.823316742561974,0.9803588451180792
7.84392196098049,0.09601228194132672,0.05726716539398331,1.1669909556758675,3.422252388182139,-6.019568244831901,1.1723334752301144
7.853926963481741,0.12990328961486555,0.0734410381137359,1.0181137392679551,-2.105994083064566,1.1262834099179977,1.0289917574102159
7.863931965982991,0.12443153950399807,0.060782714821990554,1.073999555336065,4.882156885990341,3.1468031671444603,1.0828909415571504
7.873936968484242,0.11150741540585601,0.041452260520826276,1.0088561028708054,-5.660745703580034,-1.4953454261502743,1.0158458691614836
7.883941970985492,0.08972055787268184,0.0890685707610276,0.9406789878514175,-5.49458127364097,3.396469099911746,0.9491364216947765
7.893946973486743,0.01366881766625315,0.12513156821616184,1.0403416333448763,3.437133775632521,-3.5506830341869104,1.0479291292884811
7.903951975987994,0.12044877277195003,0.1485129074701631,1.0390783912159036,-0.4427210729150635,-10.573467995368677,1.056526333623228
7.913956978489244,0.11033742962310487,0.0920725016625231,1.035701228117726,-2.269457080765642,-2.11950536166298,1.0456236071659797
7.923961980990495,0.11323875590436071,0.09894188574633873,1.0531213891777935,4.450288662377298,0.31616073256550586,1.0638031645645611
7.933966983491746,0.034254489835195606,0.07137538690908776,1.075036798677279,-3.0363070704304223,-1.3791997994822827,1.0779480202869638
7.943971985992996,0.041216585610556654,0.1127513366384249,1.0570896507691203,-1.0010062715018493,-5.7930163182974255,1.0638844864957495
7.953976988494247,0.14388603900700864,0.0670526438988954,1.00396059123153,6.9961397503557965,-9.078244879394088,1.0164330366634693
7.963981990995498,0.08404279727529115,0.13188105662380867,1.0938206190282118,7.695711729053252,-2.570444021839489,1.1049431440039474
7.973986993496748,0.11378753246709325,0.006361672521448869,0.9741708282630295,7.861991051351636,4.4882788582487185,0.9808143942973598
7.983991995997998,0.0738008240522623,0.06888040267226396,0.9710203265757111,-1.4106288846695563,6.280987197068412,0.9762538328356447
7.99399699849925,0.06561930590679328,0.09201316567799432,1.1121606781240772,6.153514524922351,5.938566920692275,1.1178880489258227
8.0040020010005,0.10197203127966196,0.0752611349931597,1.1019754682671166,-4.744764138843391,-4.079547675742765,1.1092395892079807
8.014007003501751,0.019477748448387438,0.1889876650301322,1.074932281896443,-4.534514373610305,-5.76853161815182,1.0915929327735931
8.024012006003002,0.03972902968302394,0.0593975902315651,1.0089582461993936,-11.752279263121805,2.4831730748994767,1.0114856460170987
8.034017008504252,0.00100556200650714,-0.0212595381119894,1.0440117998083172,8.36434100949265,3.1755000579896264,1.0442287188421346
8.044022011005502,-0.00871763918220079,0.010835394272844336,1.066692573552677,-4.319899245380391,2.0008480260024872,1.066783225156073
8.054027013506753,-0.01372995194942175,-0.08673793160451033,1.000202313046774,-0.6326628987352999,-10.070316371188817,1.004050121947943
8.064032016008003,0.001534715089523124,-0.015516355655433064,1.042956680818155,-4.551621709641419,-4.334422924417333,1.043073224038684
8.074037018509255,-0.04468760529290812,-0.06655301190171903,1.1121800190588982,3.4758262416507026,-0.14844395142989217,1.115065325554452
8.084042021010506,0.031124829239392908,0.007773941330868332,1.1503295477730557,-1.8781683035867007,2.436090973152136,1.1507768061786612
8.094047023511756,-0.0869011706817741,-0.07808198041473542,1.0571406258831346,-6.524084452164747,3.836536813012434,1.0635764721090513
8.104052026013006,-0.06148284528527853,-0.06840541148241502,1.1148348979532878,2.208312820930303,0.7212676114102001,1.1186224967695624
8.114057028514257,-0.08342740438270352,-0.10550691383301389,0.9799591523282112,-7.168650124051142,1.65391903269118,0.9891469966089107
8.124062031015507,0.0023922922035303495,0.002994645175679031,1.1070442672025058,-4.187028626577456,0.4243272918055208,1.1070509024013524
8.134067033516757,-0.06774985814084848,-0.10915525466560824,1.0320467969673317,-10.534445573130405,3.4280968710924147,1.0400122614804825
8.14407203601801,-0.03261413566639687,-0.009419782993834225,1.0855528225029523,-7.119790560988034,1.564328257454555,1.0860834887802333
8.15407703851926,-0.16403613476380308,-0.067002151228432,1.0555146440919188,0.8926458486023893,0.32868830023643686,1.070284217238569
8.16408204102051,-0.08080933631700225,-0.08889088316578891,1.1314223949115534,-9.822680190514623,-1.341843995686904,1.1377822171458751
8.17408704352176,-0.05287969893213378,-0.09839682909009076,1.018970049577416,-7.405728623108578,0.4064571252124055,1.0250747097016584
8.18409204602301,-0.09520116328286994,-0.0994885703851568,1.0911616644241,-0.011844580664040283,2.422956894196374,1.0998159005199308
8.194097048524261,-0.04672520941323996,-0.2163827027670895,1.0427041877420486,-2.718034480465263,1.337376944490306,1.0659440615652902
8.204102051025513,-0.12526851073506273,-0.13322907558359076,1.0454811182048558,9.960183179796545,1.904132091726269,1.0613543022410161
8.214107053526764,-0.027070182858388525,-0.07478716728198494,1.040749654946103,9.169482730121878,6.713609306755927,1.043784345284256
8.224112056028014,0.020521404855640565,-0.11575306076409163,1.0040448314536294,-4.339612313755768,1.325819613732937,1.0109035179987513
8.234117058529264,-0.1082436848440112,-0.17838160052661262,1.0418614197491631,2.785688092017409,-3.2449926023657882,1.0625497205668955
8.244122061030515,-0.10690272319814587,-0.10417333908260219,1.0355356217456304,3.746412784397257,4.418033929970845,1.0462381663402016
8.254127063531765,-0.005401813723775115,-0.008479969282817607,1.0467079685758869,-2.9873942901220167,-6.830991688344588,1.0467562567048758
8.264132066033016,0.008462669714778243,-0.022274539309372884,1.034738266281133,-7.477707682491019,-5.407066903696435,1.0350125852310355
8.274137068534268,-0.08820192934166787,-0.07757091404910693,1.066182144692031,-0.06149224654028806,1.6792363236003456,1.0726328321966028
8.284142071035518,-0.07381751611167385,-0.01579734645535285,1.0681431499119802,-0.8642283740705546,2.581983338932894,1.070807345204456
8.294147073536768,-0.05697122836951413,-0.06978374853018911,0.9650515560574258,-2.178822484853096,-6.225256117519975,0.9692471296164434
8.304152076038019,-0.09962987886417526,-0.12408240331628964,1.056580083779573,2.211584340822426,-1.91408740493375,1.0684961530182904
8.314157078539269,-0.06745081103872182,-0.072045155863892,0.9493413200369049,-3.753648035027994,-3.030419161098293,0.9544574680532636
8.32416208104052,-0.060560891223921096,0.06571981496182866,1.0335399115387234,-5.759987737895715,-2.433381614407984,1.0373964836878544
8.33416708354177,-0.037446942958208745,-0.012568131735067994,1.0306097609242353,0.5454148517491593,4.717988881364729,1.0313664289594338
8.344172086043022,0.01049341882493617,0.00250399686437937,0.899533888670865,1.9298504628443793,3.532527317736264,0.8995985764252079
8.354177088544272,0.03506673404406849,0.013035287086946915,0.9952412884802894,-5.883224719500265,-0.09561089926853741,0.9959441835975865
8.364182091045523,0.11171062951724958,0.1362295553305052,0.9626902188660332,4.6404530549554055,-2.7298096355746395,0.9786777886480403
8.374187093546773,-0.0053397287933130075,0.13479151366045503,0.9437438933028901,-8.85240568888039,-6.7482483511007025,0.9533361427140794
8.384192096048023,0.10361630246832874,0.17621923072580617,1.044850523299699,-2.8905672935782167,7.100924693909744,1.0646605897911587
8.394197098549274,0.052827163015185724,0.06827966575175082,0.9403223172253116,-1.290042680988045,2.960569501424592,0.9442769096930113
8.404202101050526,0.06936732747099876,0.10098983998169925,0.928472177867621,-3.181118563259649,-3.5333455203657023,0.9365208801592421
8.414207103551776,0.11297654418841674,0.019250556025064258,0.968460393177869,-2.8253023677559623,3.5979974881244576,0.9752178303324156
8.424212106053027,0.029481090127359368,0.17658735075248289,0.9949527967486862,9.35537241154057,-0.35111810287312833,1.0109318942831462
8.434217108554277,0.1100242432265916,0.05069552953747011,0.9497143926621909,-4.254420445194493,-1.4355475243117144,0.9574094204896789
8.444222111055527,0.10335025815876972,0.12487195548587174,1.0113771161885583,12.20610861235957,2.1760576414480117,1.0242841169705963
8.454227113556778,0.12255868469355591,0.06265821941013593,0.9760193560721472,2.1856338986552593,-3.707491249563625,0.9856776689572266
8.464232116058028,0.11405040952576748,0.09006703145951708,0.837133690186089,0.46027568655995993,-1.7187825975505502,0.8496542716384728
8.47423711855928,0.22273904360703084,0.07810572238129833,0.9163172548762215,2.3812017669383296,0.6073053209977295,0.9462296217090086
8.48424212106053,0.0671904135275251,0.08849913225431817,0.911627920652679,12.649638746259761,-2.497255964426067,0.9183747131717501
8.494247123561781,0.07036372592195489,0.08934015324900597,0.960810397699603,-4.96796501965724,3.34542605133762,0.9675170991955879
8.504252126063031,0.06235316891730654,0.08479879453999983,0.8029259323010325,-5.602089594681946,9.345332518391304,0.809795533447147
8.514257128564282,0.06113695121001278,0.14835966419064597,1.0591523784014898,-3.774330982859605,-3.7714906630357135,1.0712385716709185
8.524262131065532,0.051304879968988006,0.04456594394805065,0.9560068662074533,0.16071573482280446,-8.325626481520223,0.9584192414097332
8.534267133566782,0.135824680907327,0.10267569657303262,0.9348788192885008,-8.628855624062867,-10.008700837381308,0.9502573595424536
8.544272136068034,0.13962185154155277,0.1432139245857499,0.9847249977382424,0.11169619659304005,-0.7523407074749111,1.0048322301726422
8.554277138569285,0.031404747784039976,0.04627065674014674,1.0412788855280097,8.46773566706836,-3.315822950630914,1.0427794346385038
8.564282141070535,0.008903039038649821,0.024729036695253413,0.9663259857575068,0.7570369531238879,1.039302505335403,0.966683350487747
8.574287143571786,0.06402418178381453,0.03701785349838063,0.9691688628853758,-1.4634272948763847,0.6629883601305053,0.9719864721883977
8.584292146073036,0.0022574328240500263,0.09482856246375382,0.9274527412413796,-3.0908022434181373,-8.016084233070481,0.9322908020022757
8.594297148574286,0.050548333248392696,0.03238747238040847,0.9132850537061366,4.492558522757823,-9.07441914740703,0.91525606891427
8.604302151075537,0.017839294562513753,-0.017328942506441406,0.8962695220608834,-4.129163866190238,1.4796662017304762,0.896614515192635
8.614307153576789,-0.0794010575477313,0.01985721040195835,0.8787074656727986,9.23197960299624,0.6771441735997851,0.8825109897184047
8.62431215607804,0.06250063466563699,-0.07296415797286047,0.8858720973190504,9.666798738571785,-2.1290899918327564,0.8910664792767984
8.63431715857929,0.06384873337492802,0.002933795186329729,0.8531600360013302,1.283753993308938,-8.285717925661523,0.8555508838973688
8.64432216108054,-0.06732326725999135,-0.023590233897838063,0.9176131003198316,-0.0575754403832255,2.356956313824954,0.9203818356141586
8.65432716358179,-0.06633840138151821,-0.071734411618607,0.8381436389952726,5.153299041207797,6.3594977271197175,0.8438195120381852
8.66433216608304,-0.04232900434118532,-0.10987601857527823,0.9331415902338693,5.473992511136626,1.3899122010946114,0.9405411801142284
8.674337168584293,-0.048844177365347914,-0.12301446635181185,0.9232424808547828,-4.029958655297078,-4.237369452825323,0.932681612904003
8.684342171085543,-0.040745934087950714,-0.061666910448615164,0.9341088419317061,-2.6327756656835097,0.22276082785575657,0.9370284774562458
8.694347173586793,0.019673239138283796,-0.03555536023558733,0.9025929328143941,-6.611737173416477,-6.830570404668425,0.9035071789123559
8.704352176088044,-0.09581427186919902,-0.1362256799448356,1.084708132694912,2.0453246916702854,5.289803569193962,1.0974194930402594
8.714357178589294,-0.13189937538716456,-0.08746208061471603,1.0012577504909586,3.3331394172844537,0.4092216726476941,1.0136883858914403
8.724362181090545,-0.16479158129581073,-0.2193420948042047,0.8736252720727251,-6.749628189306365,-8.84078455876616,0.9156900872146719
8.734367183591795,-0.13498760435605,-0.14736020936360483,0.9503015216737472,-2.2759945240807955,-1.503371802218413,0.9710868481906808
8.744372186093047,-0.10145385677653712,-0.12130995640296181,0.9112598304310794,-6.736269587906746,2.316507551171154,0.924880245834347
8.754377188594297,-0.01014959540447008,-0.16533715714552302,0.8941248648084565,-4.493999051219188,-1.6652381048776121,0.9093396855348272
8.764382191095548,-0.12456058569119621,-0.16524134362674497,0.8812104502472202,2.7550853011314973,-1.3794786072008693,0.9051805890407806
8.774387193596798,-0.08503102282402562,-0.14885348231060896,0.9733558111156109,-3.667410333391397,-6.122011035236358,0.9883365666973086
8.784392196098048,-0.09335129104656303,-0.09642653907519186,0.9213613084133303,-1.5041297801614935,2.8327049354082807,0.9310849593990892
8.794397198599299,-0.028236733746355658,-0.11455412782283055,1.0076495923106714,-8.136558639736577,-3.2423460000956874,1.0145332238117066
8.80440220110055,0.04468511137056211,-0.20990537357399136,1.0129057502489482,0.9349510486233215,-10.782226885025164,1.0353912709313429
8.814407203601801,-0.10116559792599955,-0.1955815987677335,1.0359884175626866,-0.22136659922324414,-1.8562868533519692,1.0591310784337824
8.824412206103052,-0.09110035198195998,-0.11029731472011742,0.9288540853562905,-3.644796250165811,4.9057485778517655,0.9398056627030806
8.834417208604302,-0.005574369454000486,-0.046454566666267294,0.9995137173988649,-0.9450714884123708,-1.9346472329997368,1.0006082008595862
8.844422211105552,-0.014102826412121343,-0.19521212320838602,1.0117177778851512,0.9014744025172219,8.689924925617602,1.0304753877940047
8.854427213606803,0.05433942990440439,-0.07058163246645827,0.960799486227255,-4.074340744546721,2.1448397427425854,0.9649197858985601
8.864432216108053,0.0018879112073676499,-0.05908259049658771,0.950382699699987,-7.381312720008896,1.6937908114018305,0.9522192985849164
